trials.thisRepN,trials.thisTrialN,trials.thisN,trials.thisIndex,trials.thisTrial,imagename,correct,Difference,touch_delay,lick_delay,orientation,correctstim,last_choice,date,frameRate,expName,session,participant,
0,0,0,0,None,0.38,1,90,4.34840936493,6.33469253778,90,left,left,2018_Jun_11_1226,59.8866527081,untitled.py,001,293,
1,0,1,0,None,0.38,1,87,10.7772683403,14.7644468783,90,left,left,2018_Jun_11_1226,59.8866527081,untitled.py,001,293,
2,0,2,0,None,0.38,1,84,3.1353169186,5.72756872699,90,left,left,2018_Jun_11_1226,59.8866527081,untitled.py,001,293,
3,0,3,0,None,0.38,1,84,4.07614543196,6.24426652025,90,left,left,2018_Jun_11_1226,59.8866527081,untitled.py,001,293,
4,0,4,0,None,0.38,1,84,8.51609352557,10.5446982784,90,left,left,2018_Jun_11_1226,59.8866527081,untitled.py,001,293,
5,0,5,0,None,0.38,1,75,10.0616567186,12.7429139735,90,right,right,2018_Jun_11_1226,59.8866527081,untitled.py,001,293,
6,0,6,0,None,0.38,1,72,7.31382061122,8.63882728107,90,left,left,2018_Jun_11_1226,59.8866527081,untitled.py,001,293,
7,0,7,0,None,0.38,0,69,5.66394807119,9.55152847618,90,left,right,2018_Jun_11_1226,59.8866527081,untitled.py,001,293,
8,0,8,0,None,0.38,1,77,4.27625913359,5.95535968943,90,right,right,2018_Jun_11_1226,59.8866527081,untitled.py,001,293,
9,0,9,0,None,0.38,0,77,20.9436249579,29.2741334443,90,right,left,2018_Jun_11_1226,59.8866527081,untitled.py,001,293,
10,0,10,0,None,0.38,1,77,4.67068971042,6.56336992513,90,right,right,2018_Jun_11_1226,59.8866527081,untitled.py,001,293,
11,0,11,0,None,0.38,1,79,9.14312740881,11.4016569145,90,right,right,2018_Jun_11_1226,59.8866527081,untitled.py,001,293,
12,0,12,0,None,0.38,1,76,6.04438804369,8.32206942467,90,right,right,2018_Jun_11_1226,59.8866527081,untitled.py,001,293,
13,0,13,0,None,0.38,1,73,10.2001771177,12.4260731461,90,left,left,2018_Jun_11_1226,59.8866527081,untitled.py,001,293,
14,0,14,0,None,0.38,1,70,7.07062126603,9.70077202562,90,left,left,2018_Jun_11_1226,59.8866527081,untitled.py,001,293,
15,0,15,0,None,0.38,1,67,4.45067627309,6.8188068592,90,left,left,2018_Jun_11_1226,59.8866527081,untitled.py,001,293,
16,0,16,0,None,0.38,1,64,6.229651534,8.19917363813,90,left,left,2018_Jun_11_1226,59.8866527081,untitled.py,001,293,
17,0,17,0,None,0.38,1,61,10.0196916088,12.4380450589,90,left,left,2018_Jun_11_1226,59.8866527081,untitled.py,001,293,
18,0,18,0,None,0.38,1,58,9.07133644074,10.8168669483,90,right,right,2018_Jun_11_1226,59.8866527081,untitled.py,001,293,
19,0,19,0,None,0.38,1,55,7.18361775065,9.06938870763,90,left,left,2018_Jun_11_1226,59.8866527081,untitled.py,001,293,
20,0,20,0,None,0.38,1,52,7.61367073189,10.1805059025,90,left,left,2018_Jun_11_1226,59.8866527081,untitled.py,001,293,
21,0,21,0,None,0.38,1,49,5.82063809782,7.88626850629,90,left,left,2018_Jun_11_1226,59.8866527081,untitled.py,001,293,
22,0,22,0,None,0.38,1,46,15.2939613834,16.6783208479,90,left,left,2018_Jun_11_1226,59.8866527081,untitled.py,001,293,
23,0,23,0,None,0.38,1,43,7.96123557631,9.04861092707,90,right,right,2018_Jun_11_1226,59.8866527081,untitled.py,001,293,
24,0,24,0,None,0.38,1,40,7.33294874057,8.84734568186,90,right,right,2018_Jun_11_1226,59.8866527081,untitled.py,001,293,
25,0,25,0,None,0.38,1,37,13.9096217533,15.0290087145,90,right,right,2018_Jun_11_1226,59.8866527081,untitled.py,001,293,
26,0,26,0,None,0.38,1,34,16.3468639171,18.9827511599,90,left,left,2018_Jun_11_1226,59.8866527081,untitled.py,001,293,
27,0,27,0,None,0.38,0,31,5.43720109668,10.4737741807,90,right,left,2018_Jun_11_1226,59.8866527081,untitled.py,001,293,
28,0,28,0,None,0.38,1,31,4.71848656749,6.10252951132,90,right,right,2018_Jun_11_1226,59.8866527081,untitled.py,001,293,
29,0,29,0,None,0.38,1,36,12.4476353838,13.7052083435,90,left,left,2018_Jun_11_1226,59.8866527081,untitled.py,001,293,
30,0,30,0,None,0.38,1,33,7.36940924032,8.84076272277,90,left,left,2018_Jun_11_1226,59.8866527081,untitled.py,001,293,
31,0,31,0,None,0.38,1,30,5.73662378872,7.59766366985,90,left,left,2018_Jun_11_1226,59.8866527081,untitled.py,001,293,
32,0,32,0,None,0.38,1,27,7.48917502072,11.8354983665,90,left,left,2018_Jun_11_1226,59.8866527081,untitled.py,001,293,
33,0,33,0,None,0.38,1,27,7.79473871691,12.0165062877,90,left,left,2018_Jun_11_1226,59.8866527081,untitled.py,001,293,
34,0,34,0,None,0.38,1,21,9.26926075807,12.3220565743,90,left,left,2018_Jun_11_1226,59.8866527081,untitled.py,001,293,
35,0,35,0,None,0.38,1,18,11.0168932085,16.0974375233,90,left,left,2018_Jun_11_1226,59.8866527081,untitled.py,001,293,
36,0,36,0,None,0.38,0,15,6.43453958537,21.4982764572,90,right,left,2018_Jun_11_1226,59.8866527081,untitled.py,001,293,
37,0,37,0,None,0.38,1,23,4.58502211887,6.23337211879,90,right,right,2018_Jun_11_1226,59.8866527081,untitled.py,001,293,
38,0,38,0,None,0.38,0,20,23.2195139327,32.0121082431,90,right,left,2018_Jun_11_1226,59.8866527081,untitled.py,001,293,
39,0,39,0,None,0.38,1,28,8.09172981512,9.51009639492,90,right,right,2018_Jun_11_1226,59.8866527081,untitled.py,001,293,
40,0,40,0,None,0.38,1,25,8.16964334855,9.6019709208,90,right,right,2018_Jun_11_1226,59.8866527081,untitled.py,001,293,
41,0,41,0,None,0.38,1,22,9.87279528519,11.118587418,90,right,right,2018_Jun_11_1226,59.8866527081,untitled.py,001,293,
42,0,42,0,None,0.38,0,19,7.9891466652,12.1417828244,90,left,right,2018_Jun_11_1226,59.8866527081,untitled.py,001,293,
43,0,43,0,None,0.38,1,27,5.31274365867,6.91206899192,90,left,left,2018_Jun_11_1226,59.8866527081,untitled.py,001,293,
44,0,44,0,None,0.38,1,24,21.6210199902,23.0145233544,90,right,right,2018_Jun_11_1226,59.8866527081,untitled.py,001,293,
45,0,45,0,None,0.38,1,21,6.63201803574,7.96653401479,90,left,left,2018_Jun_11_1226,59.8866527081,untitled.py,001,293,
46,0,46,0,None,0.38,1,18,5.92503740033,7.58411306469,90,left,left,2018_Jun_11_1226,59.8866527081,untitled.py,001,293,
47,0,47,0,None,0.38,0,15,7.62619187636,10.2432987993,90,right,left,2018_Jun_11_1226,59.8866527081,untitled.py,001,293,
48,0,48,0,None,0.38,0,23,2.01077846484,8.9579938231,90,right,left,2018_Jun_11_1226,59.8866527081,untitled.py,001,293,
49,0,49,0,None,0.38,0,31,1.76035194425,4.48496638564,90,right,left,2018_Jun_11_1226,59.8866527081,untitled.py,001,293,
50,0,50,0,None,0.38,1,39,1.95869977912,3.19959128927,90,right,right,2018_Jun_11_1226,59.8866527081,untitled.py,001,293,
51,0,51,0,None,0.38,1,36,11.1554147247,12.5209449804,90,left,left,2018_Jun_11_1226,59.8866527081,untitled.py,001,293,
52,0,52,0,None,0.38,1,33,6.20090877498,7.98333028378,90,left,left,2018_Jun_11_1226,59.8866527081,untitled.py,001,293,
53,0,53,0,None,0.38,1,30,10.1274717874,11.6781333941,90,right,right,2018_Jun_11_1226,59.8866527081,untitled.py,001,293,
54,0,54,0,None,0.38,1,27,8.72221665038,10.8598330235,90,right,right,2018_Jun_11_1226,59.8866527081,untitled.py,001,293,
55,0,55,0,None,0.38,0,24,24.78506542,28.4408549131,90,right,left,2018_Jun_11_1226,59.8866527081,untitled.py,001,293,
56,0,56,0,None,0.38,1,32,3.10643475642,4.736628538,90,right,right,2018_Jun_11_1226,59.8866527081,untitled.py,001,293,
57,0,57,0,None,0.38,1,29,12.7770244544,14.2395083732,90,right,right,2018_Jun_11_1226,59.8866527081,untitled.py,001,293,
58,0,58,0,None,0.38,1,26,6.37998209288,8.45138669899,90,right,right,2018_Jun_11_1226,59.8866527081,untitled.py,001,293,
59,0,59,0,None,0.38,1,23,7.81481892243,9.23652531253,90,left,left,2018_Jun_11_1226,59.8866527081,untitled.py,001,293,
60,0,60,0,None,0.38,1,20,9.64227436716,10.6977431485,90,left,left,2018_Jun_11_1226,59.8866527081,untitled.py,001,293,
61,0,61,0,None,0.38,1,20,13.2969634407,14.8798070704,90,left,left,2018_Jun_11_1226,59.8866527081,untitled.py,001,293,
62,0,62,0,None,0.38,1,20,7.85265557468,9.05965478811,90,left,left,2018_Jun_11_1226,59.8866527081,untitled.py,001,293,
63,0,63,0,None,0.38,0,11,9.04994713049,25.0898924307,90,right,left,2018_Jun_11_1226,59.8866527081,untitled.py,001,293,
64,0,64,0,None,0.38,1,19,8.43733156053,10.0336299725,90,right,right,2018_Jun_11_1226,59.8866527081,untitled.py,001,293,
65,0,65,0,None,0.38,1,16,6.48816874763,7.82157760253,90,left,left,2018_Jun_11_1226,59.8866527081,untitled.py,001,293,
66,0,66,0,None,0.38,1,13,6.00891090883,7.6851759092,90,left,left,2018_Jun_11_1226,59.8866527081,untitled.py,001,293,
67,0,67,0,None,0.38,1,10,34.4536107243,36.1724073873,90,left,left,2018_Jun_11_1226,59.8866527081,untitled.py,001,293,
68,0,68,0,None,0.38,1,10,27.3053871375,29.1243859208,90,left,left,2018_Jun_11_1226,59.8866527081,untitled.py,001,293,
69,0,69,0,None,0.38,0,4,5.0588306617,17.0155961164,90,right,left,2018_Jun_11_1226,59.8866527081,untitled.py,001,293,
70,0,70,0,None,0.38,0,12,23.8033697018,27.8099909346,90,right,left,2018_Jun_11_1226,59.8866527081,untitled.py,001,293,
71,0,71,0,None,0.38,1,20,2.67672930518,4.19601960573,90,right,right,2018_Jun_11_1226,59.8866527081,untitled.py,001,293,
72,0,72,0,None,0.38,1,17,16.901941448,18.623335368,90,right,right,2018_Jun_11_1226,59.8866527081,untitled.py,001,293,
73,0,73,0,None,0.38,0,14,5.94106457662,16.3054832388,90,right,left,2018_Jun_11_1226,59.8866527081,untitled.py,001,293,
74,0,74,0,None,0.38,0,22,25.3527906481,81.6922818404,90,right,left,2018_Jun_11_1226,59.8866527081,untitled.py,001,293,
75,0,75,0,None,0.38,0,30,93.5522729848,106.279448645,90,right,left,2018_Jun_11_1226,59.8866527081,untitled.py,001,293,
76,0,76,0,None,0.38,1,38,65.6491266349,69.7495628633,90,right,right,2018_Jun_11_1226,59.8866527081,untitled.py,001,293,
77,0,77,0,None,0.38,1,35,16.3992594029,17.9999896633,90,left,left,2018_Jun_11_1226,59.8866527081,untitled.py,001,293,
78,0,78,0,None,0.38,1,32,24.1575747756,25.4042969146,90,left,left,2018_Jun_11_1226,59.8866527081,untitled.py,001,293,
79,0,79,0,None,0.38,0,29,5.72154477704,10.7211528281,90,right,left,2018_Jun_11_1226,59.8866527081,untitled.py,001,293,
80,0,80,0,None,0.38,1,37,10.238143954,11.8933867291,90,right,right,2018_Jun_11_1226,59.8866527081,untitled.py,001,293,
81,0,81,0,None,0.38,1,34,6.93107336247,8.22111162171,90,right,right,2018_Jun_11_1226,59.8866527081,untitled.py,001,293,
82,0,82,0,None,0.38,1,31,6.15820865519,7.34225020232,90,right,right,2018_Jun_11_1226,59.8866527081,untitled.py,001,293,
83,0,83,0,None,0.38,1,31,5.67733161617,7.37839893019,90,right,right,2018_Jun_11_1226,59.8866527081,untitled.py,001,293,
84,0,84,0,None,0.38,1,25,5.64108511014,6.78460837901,90,left,left,2018_Jun_11_1226,59.8866527081,untitled.py,001,293,
85,0,85,0,None,0.38,1,22,11.075299514,12.503598921,90,right,right,2018_Jun_11_1226,59.8866527081,untitled.py,001,293,
86,0,86,0,None,0.38,1,19,30.9985411554,32.6009850414,90,left,left,2018_Jun_11_1226,59.8866527081,untitled.py,001,293,
87,0,87,0,None,0.38,1,16,18.5600859886,20.6967142471,90,left,left,2018_Jun_11_1226,59.8866527081,untitled.py,001,293,
88,0,88,0,None,0.38,1,16,4.40307273669,6.42505318439,90,left,left,2018_Jun_11_1226,59.8866527081,untitled.py,001,293,
89,0,89,0,None,0.38,0,10,70.9566699117,108.139062926,90,right,left,2018_Jun_11_1226,59.8866527081,untitled.py,001,293,
90,0,90,0,None,0.38,1,18,33.0489866729,34.7673153989,90,right,right,2018_Jun_11_1226,59.8866527081,untitled.py,001,293,
91,0,91,0,None,0.38,1,15,4.81253315741,6.33982224017,90,left,left,2018_Jun_11_1226,59.8866527081,untitled.py,001,293,
92,0,92,0,None,0.38,0,12,3.78283469006,7.22660896881,90,right,left,2018_Jun_11_1226,59.8866527081,untitled.py,001,293,
93,0,93,0,None,0.38,1,20,8.8758247206,11.9289851082,90,right,right,2018_Jun_11_1226,59.8866527081,untitled.py,001,293,
94,0,94,0,None,0.38,1,17,5.235027357,8.87710281648,90,right,right,2018_Jun_11_1226,59.8866527081,untitled.py,001,293,
95,0,95,0,None,0.38,1,14,4.55121419067,6.82330352021,90,right,right,2018_Jun_11_1226,59.8866527081,untitled.py,001,293,
96,0,96,0,None,0.38,0,11,3.63687870931,19.5409145574,90,right,left,2018_Jun_11_1226,59.8866527081,untitled.py,001,293,
