trials.thisRepN,trials.thisTrialN,trials.thisN,trials.thisIndex,trials.thisTrial,imagename,correct,Difference,touch_delay,lick_delay,orientation,correctstim,last_choice,date,frameRate,expName,session,participant,
0,0,0,0,None,0.38,0,0,0,0,0,,right,2018_Jun_20_1451,39.9207839207,untitled.py,001,293,
1,0,1,0,None,0.38,1,59,1.45338415913,5.20149935316,90,right,right,2018_Jun_20_1451,39.9207839207,untitled.py,001,293,
2,0,2,0,None,0.38,1,56,2.01881440263,7.72132296115,90,left,left,2018_Jun_20_1451,39.9207839207,untitled.py,001,293,
3,0,3,0,None,0.38,1,53,5.25229351781,9.56199461129,90,left,left,2018_Jun_20_1451,39.9207839207,untitled.py,001,293,
4,0,4,0,None,0.38,1,50,6.57489457447,11.6388778463,90,left,left,2018_Jun_20_1451,39.9207839207,untitled.py,001,293,
5,0,5,0,None,0.38,1,47,5.69424298313,8.88358576316,90,left,left,2018_Jun_20_1451,39.9207839207,untitled.py,001,293,
6,0,6,0,None,0.38,1,47,6.88059543911,22.3412858341,90,left,left,2018_Jun_20_1451,39.9207839207,untitled.py,001,293,
7,0,7,0,None,0.38,1,41,5.2047885973,13.036704665,90,left,left,2018_Jun_20_1451,39.9207839207,untitled.py,001,293,
8,0,8,0,None,0.38,1,38,5.67703297455,11.3832224486,90,right,right,2018_Jun_20_1451,39.9207839207,untitled.py,001,293,
9,0,9,0,None,0.38,0,38,4.34563331306,6.90495887026,90,right,left,2018_Jun_20_1451,39.9207839207,untitled.py,001,293,
10,0,10,0,None,0.38,1,38,3.49618792348,13.140490761,90,right,right,2018_Jun_20_1451,39.9207839207,untitled.py,001,293,
11,0,11,0,None,0.38,1,40,9.9995720135,12.2658555768,90,right,right,2018_Jun_20_1451,39.9207839207,untitled.py,001,293,
12,0,12,0,None,0.38,1,37,10.6424037134,12.596129396,90,right,right,2018_Jun_20_1451,39.9207839207,untitled.py,001,293,
13,0,13,0,None,0.38,1,34,5.24420142826,7.33911656402,90,right,right,2018_Jun_20_1451,39.9207839207,untitled.py,001,293,
14,0,14,0,None,0.38,1,31,7.05736678839,10.3188109109,90,left,left,2018_Jun_20_1451,39.9207839207,untitled.py,001,293,
15,0,15,0,None,0.38,1,28,5.24207378272,7.76212256029,90,right,right,2018_Jun_20_1451,39.9207839207,untitled.py,001,293,
16,0,16,0,None,0.38,1,25,4.94086930063,6.33926183358,90,left,left,2018_Jun_20_1451,39.9207839207,untitled.py,001,293,
17,0,17,0,None,0.38,1,22,13.814831215,16.511986021,90,left,left,2018_Jun_20_1451,39.9207839207,untitled.py,001,293,
18,0,18,0,None,0.38,1,19,4.73374576867,7.53206566721,90,left,left,2018_Jun_20_1451,39.9207839207,untitled.py,001,293,
19,0,19,0,None,0.38,0,16,4.538503916,11.0180679383,90,right,left,2018_Jun_20_1451,39.9207839207,untitled.py,001,293,
20,0,20,0,None,0.38,1,24,4.02827677783,8.50682810228,90,left,left,2018_Jun_20_1451,39.9207839207,untitled.py,001,293,
21,0,21,0,None,0.38,1,21,5.53647376969,10.6998721901,90,right,right,2018_Jun_20_1451,39.9207839207,untitled.py,001,293,
22,0,22,0,None,0.38,1,18,7.44698558096,8.84440005664,90,left,left,2018_Jun_20_1451,39.9207839207,untitled.py,001,293,
23,0,23,0,None,0.38,1,15,4.70046891458,6.38003601041,90,left,left,2018_Jun_20_1451,39.9207839207,untitled.py,001,293,
24,0,24,0,None,0.38,0,12,6.32068237662,11.5860940423,90,right,left,2018_Jun_20_1451,39.9207839207,untitled.py,001,293,
25,0,25,0,None,0.38,1,20,6.81926362123,15.8772028293,90,right,right,2018_Jun_20_1451,39.9207839207,untitled.py,001,293,
26,0,26,0,None,0.38,1,17,7.52724885382,9.38144400995,90,right,right,2018_Jun_20_1451,39.9207839207,untitled.py,001,293,
27,0,27,0,None,0.38,1,14,5.26474817377,7.28195902053,90,right,right,2018_Jun_20_1451,39.9207839207,untitled.py,001,293,
28,0,28,0,None,0.38,1,11,4.83719830308,6.52060722839,90,left,left,2018_Jun_20_1451,39.9207839207,untitled.py,001,293,
29,0,29,0,None,0.38,0,8,5.16671979241,17.7329020863,90,right,left,2018_Jun_20_1451,39.9207839207,untitled.py,001,293,
30,0,30,0,None,0.38,1,8,5.49795909785,6.81640320178,90,right,right,2018_Jun_20_1451,39.9207839207,untitled.py,001,293,
31,0,31,0,None,0.38,1,8,6.28713872842,8.78824850637,90,right,right,2018_Jun_20_1451,39.9207839207,untitled.py,001,293,
32,0,32,0,None,0.38,1,8,8.30399282556,9.7379815029,90,right,right,2018_Jun_20_1451,39.9207839207,untitled.py,001,293,
33,0,33,0,None,0.38,0,7,6.96932794526,14.6313453242,90,left,right,2018_Jun_20_1451,39.9207839207,untitled.py,001,293,
34,0,34,0,None,0.38,1,15,3.47474357765,6.53112532478,90,left,left,2018_Jun_20_1451,39.9207839207,untitled.py,001,293,
35,0,35,0,None,0.38,1,12,7.56532883365,9.44175810087,90,left,left,2018_Jun_20_1451,39.9207839207,untitled.py,001,293,
36,0,36,0,None,0.38,1,9,10.4853720237,14.0820087465,90,left,left,2018_Jun_20_1451,39.9207839207,untitled.py,001,293,
37,0,37,0,None,0.38,0,6,7.11921235826,11.8810893567,90,right,left,2018_Jun_20_1451,39.9207839207,untitled.py,001,293,
38,0,38,0,None,0.38,1,14,2.57104464341,7.21996957716,90,right,right,2018_Jun_20_1451,39.9207839207,untitled.py,001,293,
39,0,39,0,None,0.38,1,11,11.5085934103,22.0262935646,90,left,left,2018_Jun_20_1451,39.9207839207,untitled.py,001,293,
40,0,40,0,None,0.38,1,8,12.3443314722,15.4220164847,90,right,right,2018_Jun_20_1451,39.9207839207,untitled.py,001,293,
41,0,41,0,None,0.38,0,5,6.20863936562,33.8774989555,90,left,right,2018_Jun_20_1451,39.9207839207,untitled.py,001,293,
42,0,42,0,None,0.38,1,13,5.88016046677,7.18036063202,90,left,left,2018_Jun_20_1451,39.9207839207,untitled.py,001,293,
43,0,43,0,None,0.38,0,10,16.6209814372,21.0721398946,90,right,left,2018_Jun_20_1451,39.9207839207,untitled.py,001,293,
44,0,44,0,None,0.38,1,18,4.35201904085,6.24230342079,90,right,right,2018_Jun_20_1451,39.9207839207,untitled.py,001,293,
45,0,45,0,None,0.38,1,15,8.82204162888,10.5200269874,90,right,right,2018_Jun_20_1451,39.9207839207,untitled.py,001,293,
46,0,46,0,None,0.38,0,12,10.7069459939,16.2024824377,90,right,left,2018_Jun_20_1451,39.9207839207,untitled.py,001,293,
47,0,47,0,None,0.38,1,20,2.23396828305,6.8616759954,90,right,right,2018_Jun_20_1451,39.9207839207,untitled.py,001,293,
48,0,48,0,None,0.38,1,17,10.336184348,13.0227305423,90,right,right,2018_Jun_20_1451,39.9207839207,untitled.py,001,293,
49,0,49,0,None,0.38,0,14,7.96925000194,11.1633045543,90,right,left,2018_Jun_20_1451,39.9207839207,untitled.py,001,293,
50,0,50,0,None,0.38,1,22,5.25749417953,7.56300842762,90,left,left,2018_Jun_20_1451,39.9207839207,untitled.py,001,293,
51,0,51,0,None,0.38,1,19,12.7866200879,15.0478513334,90,right,right,2018_Jun_20_1451,39.9207839207,untitled.py,001,293,
52,0,52,0,None,0.38,1,16,14.4650982181,16.5775021687,90,left,left,2018_Jun_20_1451,39.9207839207,untitled.py,001,293,
53,0,53,0,None,0.38,1,13,8.07186918985,11.19744772,90,left,left,2018_Jun_20_1451,39.9207839207,untitled.py,001,293,
54,0,54,0,None,0.38,1,10,8.84066382796,11.8150572209,90,left,left,2018_Jun_20_1451,39.9207839207,untitled.py,001,293,
55,0,55,0,None,0.38,1,7,9.04572815821,11.3999175876,90,left,left,2018_Jun_20_1451,39.9207839207,untitled.py,001,293,
56,0,56,0,None,0.38,1,4,15.8847392611,17.8854675656,90,right,right,2018_Jun_20_1451,39.9207839207,untitled.py,001,293,
57,0,57,0,None,0.38,0,4,7.73220953997,11.1831777496,90,right,left,2018_Jun_20_1451,39.9207839207,untitled.py,001,293,
58,0,58,0,None,0.38,1,12,4.59733541589,6.35722975992,90,right,right,2018_Jun_20_1451,39.9207839207,untitled.py,001,293,
59,0,59,0,None,0.38,0,9,11.1009181328,14.6059373468,90,right,left,2018_Jun_20_1451,39.9207839207,untitled.py,001,293,
60,0,60,0,None,0.38,1,17,2.30112234969,4.09198571369,90,right,right,2018_Jun_20_1451,39.9207839207,untitled.py,001,293,
61,0,61,0,None,0.38,1,14,11.0438418845,14.7952421326,90,right,right,2018_Jun_20_1451,39.9207839207,untitled.py,001,293,
62,0,62,0,None,0.38,0,11,9.68226995319,13.0834145127,90,right,left,2018_Jun_20_1451,39.9207839207,untitled.py,001,293,
63,0,63,0,None,0.38,1,11,2.77681660652,4.95730798226,90,right,right,2018_Jun_20_1451,39.9207839207,untitled.py,001,293,
64,0,64,0,None,0.38,1,11,8.17959628906,9.6438295925,90,right,right,2018_Jun_20_1451,39.9207839207,untitled.py,001,293,
65,0,65,0,None,0.38,1,13,16.4340585191,19.6525692511,90,right,right,2018_Jun_20_1451,39.9207839207,untitled.py,001,293,
66,0,66,0,None,0.38,1,10,14.499704292,17.9367724117,90,right,right,2018_Jun_20_1451,39.9207839207,untitled.py,001,293,
67,0,67,0,None,0.38,0,7,8.48073623795,12.6403171346,90,left,right,2018_Jun_20_1451,39.9207839207,untitled.py,001,293,
68,0,68,0,None,0.38,1,15,4.94318523724,7.2574760206,90,left,left,2018_Jun_20_1451,39.9207839207,untitled.py,001,293,
69,0,69,0,None,0.38,1,12,9.32458762266,11.0851038331,90,left,left,2018_Jun_20_1451,39.9207839207,untitled.py,001,293,
70,0,70,0,None,0.38,0,9,7.32600456197,9.88387518469,90,left,right,2018_Jun_20_1451,39.9207839207,untitled.py,001,293,
71,0,71,0,None,0.38,1,17,4.24317308515,8.2787438063,90,left,left,2018_Jun_20_1451,39.9207839207,untitled.py,001,293,
72,0,72,0,None,0.38,1,14,5.48740077298,7.5634196531,90,left,left,2018_Jun_20_1451,39.9207839207,untitled.py,001,293,
73,0,73,0,None,0.38,1,11,7.94387526903,12.9422136052,90,left,left,2018_Jun_20_1451,39.9207839207,untitled.py,001,293,
74,0,74,0,None,0.38,1,8,10.9881521259,12.5593607565,90,left,left,2018_Jun_20_1451,39.9207839207,untitled.py,001,293,
75,0,75,0,None,0.38,0,5,8.55282333307,47.5581019372,90,right,left,2018_Jun_20_1451,39.9207839207,untitled.py,001,293,
76,0,76,0,None,0.38,1,13,3.71573258657,5.75662800763,90,right,right,2018_Jun_20_1451,39.9207839207,untitled.py,001,293,
77,0,77,0,None,0.38,1,13,10.2423623679,12.1448924374,90,right,right,2018_Jun_20_1451,39.9207839207,untitled.py,001,293,
78,0,78,0,None,0.38,0,7,8.27075508237,10.8262483086,90,right,left,2018_Jun_20_1451,39.9207839207,untitled.py,001,293,
79,0,79,0,None,0.38,1,15,5.4604669027,7.97685236577,90,right,right,2018_Jun_20_1451,39.9207839207,untitled.py,001,293,
80,0,80,0,None,0.38,1,12,8.86842601467,11.0818059277,90,right,right,2018_Jun_20_1451,39.9207839207,untitled.py,001,293,
81,0,81,0,None,0.38,1,9,7.00472210906,9.22008719016,90,right,right,2018_Jun_20_1451,39.9207839207,untitled.py,001,293,
82,0,82,0,None,0.38,1,6,7.80065511074,10.5199054629,90,right,right,2018_Jun_20_1451,39.9207839207,untitled.py,001,293,
83,0,83,0,None,0.38,1,3,8.482447071,10.1592079448,90,left,left,2018_Jun_20_1451,39.9207839207,untitled.py,001,293,
84,0,84,0,None,0.38,0,3,7.39262559917,11.7463663677,90,right,left,2018_Jun_20_1451,39.9207839207,untitled.py,001,293,
85,0,85,0,None,0.38,1,3,1.66721748095,3.69250868447,90,right,right,2018_Jun_20_1451,39.9207839207,untitled.py,001,293,
86,0,86,0,None,0.38,1,3,9.01854481455,10.5423516119,90,right,right,2018_Jun_20_1451,39.9207839207,untitled.py,001,293,
87,0,87,0,None,0.38,0,5,7.39528096467,18.2508332767,90,left,right,2018_Jun_20_1451,39.9207839207,untitled.py,001,293,
88,0,88,0,None,0.38,1,13,10.1016632002,12.0159821995,90,left,left,2018_Jun_20_1451,39.9207839207,untitled.py,001,293,
89,0,89,0,None,0.38,1,10,9.87588785682,11.8842283022,90,left,left,2018_Jun_20_1451,39.9207839207,untitled.py,001,293,
90,0,90,0,None,0.38,1,7,11.2041935492,13.0626445534,90,left,left,2018_Jun_20_1451,39.9207839207,untitled.py,001,293,
91,0,91,0,None,0.38,0,4,6.96080088429,8.99076027889,90,right,left,2018_Jun_20_1451,39.9207839207,untitled.py,001,293,
92,0,92,0,None,0.38,1,12,3.61358301062,9.44168043695,90,right,right,2018_Jun_20_1451,39.9207839207,untitled.py,001,293,
93,0,93,0,None,0.38,0,9,11.77659088,15.4290042454,90,left,right,2018_Jun_20_1451,39.9207839207,untitled.py,001,293,
94,0,94,0,None,0.38,1,17,1.55547199398,3.85586575978,90,left,left,2018_Jun_20_1451,39.9207839207,untitled.py,001,293,
95,0,95,0,None,0.38,1,14,8.822261489,11.1032617278,90,right,right,2018_Jun_20_1451,39.9207839207,untitled.py,001,293,
96,0,96,0,None,0.38,1,11,7.05624625459,8.72285639588,90,left,left,2018_Jun_20_1451,39.9207839207,untitled.py,001,293,
97,0,97,0,None,0.38,0,8,11.2055914933,13.5721707651,90,right,left,2018_Jun_20_1451,39.9207839207,untitled.py,001,293,
98,0,98,0,None,0.38,1,16,4.70601291489,6.2834826773,90,right,right,2018_Jun_20_1451,39.9207839207,untitled.py,001,293,
99,0,99,0,None,0.38,1,13,8.41146598198,9.96580431238,90,right,right,2018_Jun_20_1451,39.9207839207,untitled.py,001,293,
100,0,100,0,None,0.38,1,10,8.7334244987,10.2447403232,90,right,right,2018_Jun_20_1451,39.9207839207,untitled.py,001,293,
101,0,101,0,None,0.38,0,7,14.2719309293,34.9844449507,90,left,right,2018_Jun_20_1451,39.9207839207,untitled.py,001,293,
102,0,102,0,None,0.38,1,15,10.0080999127,11.3977270853,90,left,left,2018_Jun_20_1451,39.9207839207,untitled.py,001,293,
103,0,103,0,None,0.38,1,12,7.01293376647,9.88335137535,90,left,left,2018_Jun_20_1451,39.9207839207,untitled.py,001,293,
104,0,104,0,None,0.38,1,9,8.42734174337,10.7982036825,90,left,left,2018_Jun_20_1451,39.9207839207,untitled.py,001,293,
105,0,105,0,None,0.38,1,6,6.28049570601,8.28194644861,90,left,left,2018_Jun_20_1451,39.9207839207,untitled.py,001,293,
106,0,106,0,None,0.38,0,3,9.84760688897,15.6247282829,90,right,left,2018_Jun_20_1451,39.9207839207,untitled.py,001,293,
107,0,107,0,None,0.38,1,11,6.78996604402,10.2386741899,90,right,right,2018_Jun_20_1451,39.9207839207,untitled.py,001,293,
108,0,108,0,None,0.38,1,8,8.84578095842,10.2210043464,90,left,left,2018_Jun_20_1451,39.9207839207,untitled.py,001,293,
109,0,109,0,None,0.38,1,5,8.90915661119,10.9434249327,90,right,right,2018_Jun_20_1451,39.9207839207,untitled.py,001,293,
110,0,110,0,None,0.38,0,2,9.4031400634,29.4239438251,90,left,right,2018_Jun_20_1451,39.9207839207,untitled.py,001,293,
111,0,111,0,None,0.38,0,10,6.31562251598,10.8023466673,90,right,left,2018_Jun_20_1451,39.9207839207,untitled.py,001,293,
112,0,112,0,None,0.38,1,18,6.24939314928,8.0961178029,90,left,left,2018_Jun_20_1451,39.9207839207,untitled.py,001,293,
113,0,113,0,None,0.38,0,15,9.05647868663,11.3600186612,90,right,left,2018_Jun_20_1451,39.9207839207,untitled.py,001,293,
114,0,114,0,None,0.38,1,23,2.34320618957,4.11303699203,90,right,right,2018_Jun_20_1451,39.9207839207,untitled.py,001,293,
115,0,115,0,None,0.38,1,20,10.3675746499,11.8569251122,90,right,right,2018_Jun_20_1451,39.9207839207,untitled.py,001,293,
116,0,116,0,None,0.38,1,17,7.91486655455,9.66371927224,90,right,right,2018_Jun_20_1451,39.9207839207,untitled.py,001,293,
117,0,117,0,None,0.38,1,14,6.08415147755,8.20342669263,90,left,left,2018_Jun_20_1451,39.9207839207,untitled.py,001,293,
118,0,118,0,None,0.38,1,11,10.383975897,13.4556657346,90,left,left,2018_Jun_20_1451,39.9207839207,untitled.py,001,293,
119,0,119,0,None,0.38,1,11,6.05870634317,8.43974583317,90,left,left,2018_Jun_20_1451,39.9207839207,untitled.py,001,293,
120,0,120,0,None,0.38,0,5,6.23959106486,72.4634047067,90,right,left,2018_Jun_20_1451,39.9207839207,untitled.py,001,293,
121,0,121,0,None,0.38,0,13,4.71102360729,13.9116468709,90,right,left,2018_Jun_20_1451,39.9207839207,untitled.py,001,293,
122,0,122,0,None,0.38,1,21,8.06676938012,10.2927425131,90,left,left,2018_Jun_20_1451,39.9207839207,untitled.py,001,293,
123,0,123,0,None,0.38,1,18,15.395188774,17.9626385476,90,right,right,2018_Jun_20_1451,39.9207839207,untitled.py,001,293,
124,0,124,0,None,0.38,1,15,32.3555018865,34.859761226,90,left,left,2018_Jun_20_1451,39.9207839207,untitled.py,001,293,
125,0,125,0,None,0.38,1,12,10.4592198171,12.6805770006,90,right,right,2018_Jun_20_1451,39.9207839207,untitled.py,001,293,
126,0,126,0,None,0.38,0,12,17.8028506413,30.5819851402,90,right,left,2018_Jun_20_1451,39.9207839207,untitled.py,001,293,
127,0,127,0,None,0.38,1,17,7.56933520921,10.9387737829,90,right,right,2018_Jun_20_1451,39.9207839207,untitled.py,001,293,
128,0,128,0,None,0.38,1,14,10.181621966,13.8414063798,90,right,right,2018_Jun_20_1451,39.9207839207,untitled.py,001,293,
129,0,129,0,None,0.38,0,11,9.21308294777,44.1567942295,90,right,left,2018_Jun_20_1451,39.9207839207,untitled.py,001,293,
130,0,130,0,None,0.38,1,19,9.58324563596,13.5405608816,90,right,right,2018_Jun_20_1451,39.9207839207,untitled.py,001,293,
131,0,131,0,None,0.38,1,19,9.62328396458,12.1230399394,90,right,right,2018_Jun_20_1451,39.9207839207,untitled.py,001,293,
132,0,132,0,None,0.38,1,13,9.81989554595,12.2195695266,90,right,right,2018_Jun_20_1451,39.9207839207,untitled.py,001,293,
133,0,133,0,None,0.38,1,10,7.2056082543,9.61821572296,90,right,right,2018_Jun_20_1451,39.9207839207,untitled.py,001,293,
134,0,134,0,None,0.38,1,7,8.5852612555,10.8805191722,90,right,right,2018_Jun_20_1451,39.9207839207,untitled.py,001,293,
135,0,135,0,None,0.38,0,4,6.34675105289,9.02983144484,90,left,right,2018_Jun_20_1451,39.9207839207,untitled.py,001,293,
136,0,136,0,None,0.38,1,12,8.68372935615,10.0974704884,90,left,left,2018_Jun_20_1451,39.9207839207,untitled.py,001,293,
137,0,137,0,None,0.38,1,9,13.890150005,16.3294642195,90,left,left,2018_Jun_20_1451,39.9207839207,untitled.py,001,293,
138,0,138,0,None,0.38,1,6,12.3287604982,14.7148534236,90,left,left,2018_Jun_20_1451,39.9207839207,untitled.py,001,293,
139,0,139,0,None,0.38,1,3,12.537263534,14.3943084944,90,left,left,2018_Jun_20_1451,39.9207839207,untitled.py,001,293,
140,0,140,0,None,0.38,0,3,4.59088068455,16.9618378868,90,right,left,2018_Jun_20_1451,39.9207839207,untitled.py,001,293,
141,0,141,0,None,0.38,1,11,9.967971907,11.7142743003,90,right,right,2018_Jun_20_1451,39.9207839207,untitled.py,001,293,
142,0,142,0,None,0.38,1,8,7.2166286502,10.3005527239,90,left,left,2018_Jun_20_1451,39.9207839207,untitled.py,001,293,
143,0,143,0,None,0.38,0,5,11.5947736371,14.7593115885,90,right,left,2018_Jun_20_1451,39.9207839207,untitled.py,001,293,
