trials.thisRepN,trials.thisTrialN,trials.thisN,trials.thisIndex,trials.thisTrial,imagename,correct,Difference,touch_delay,lick_delay,orientation,correctstim,last_choice,date,frameRate,expName,session,participant,
0,0,0,0,None,0.38,1,52,10.4723723261,15.9743738379,90,left,left,2018_Jun_25_1007,59.8558096987,untitled.py,001,293,
1,0,1,0,None,0.38,1,49,3.93891821429,5.54196301475,90,right,right,2018_Jun_25_1007,59.8558096987,untitled.py,001,293,
2,0,2,0,None,0.38,1,46,5.6865786016,7.58903156687,90,left,left,2018_Jun_25_1007,59.8558096987,untitled.py,001,293,
3,0,3,0,None,0.38,1,43,5.68908841722,7.16674074437,90,left,left,2018_Jun_25_1007,59.8558096987,untitled.py,001,293,
4,0,4,0,None,0.38,1,43,2.07826357894,4.58824263979,90,left,left,2018_Jun_25_1007,59.8558096987,untitled.py,001,293,
5,0,5,0,None,0.38,1,37,1.94945698418,4.11631841492,90,left,left,2018_Jun_25_1007,59.8558096987,untitled.py,001,293,
6,0,6,0,None,0.38,1,34,1.4079180453,3.72430350818,90,left,left,2018_Jun_25_1007,59.8558096987,untitled.py,001,293,
7,0,7,0,None,0.38,1,31,3.44031350315,6.14102071617,90,left,left,2018_Jun_25_1007,59.8558096987,untitled.py,001,293,
8,0,8,0,None,0.38,1,28,3.53160834685,8.79679484386,90,right,right,2018_Jun_25_1007,59.8558096987,untitled.py,001,293,
9,0,9,0,None,0.38,1,28,8.74230300263,10.7867455222,90,right,right,2018_Jun_25_1007,59.8558096987,untitled.py,001,293,
10,0,10,0,None,0.38,1,28,4.94408004358,6.68687500805,90,right,right,2018_Jun_25_1007,59.8558096987,untitled.py,001,293,
11,0,11,0,None,0.38,1,19,6.56419544946,8.36761459894,90,right,right,2018_Jun_25_1007,59.8558096987,untitled.py,001,293,
12,0,12,0,None,0.38,1,16,4.23263040464,6.32430322841,90,left,left,2018_Jun_25_1007,59.8558096987,untitled.py,001,293,
13,0,13,0,None,0.38,0,13,3.5951393256,11.0895750709,90,right,left,2018_Jun_25_1007,59.8558096987,untitled.py,001,293,
14,0,14,0,None,0.38,1,21,3.70720161404,4.99905881938,90,right,right,2018_Jun_25_1007,59.8558096987,untitled.py,001,293,
15,0,15,0,None,0.38,0,18,8.20093140379,18.6546105724,90,left,right,2018_Jun_25_1007,59.8558096987,untitled.py,001,293,
16,0,16,0,None,0.38,1,26,5.23951898888,7.11285736039,90,left,left,2018_Jun_25_1007,59.8558096987,untitled.py,001,293,
17,0,17,0,None,0.38,0,23,7.21447474416,12.9662823062,90,right,left,2018_Jun_25_1007,59.8558096987,untitled.py,001,293,
18,0,18,0,None,0.38,1,31,4.96851527225,6.55288535263,90,right,right,2018_Jun_25_1007,59.8558096987,untitled.py,001,293,
19,0,19,0,None,0.38,1,28,9.07144902553,10.703596686,90,left,left,2018_Jun_25_1007,59.8558096987,untitled.py,001,293,
20,0,20,0,None,0.38,1,25,7.36982772965,8.7405281961,90,left,left,2018_Jun_25_1007,59.8558096987,untitled.py,001,293,
21,0,21,0,None,0.38,1,22,6.694784672,8.4371868493,90,left,left,2018_Jun_25_1007,59.8558096987,untitled.py,001,293,
22,0,22,0,None,0.38,0,19,6.92587745097,19.6237264788,90,right,left,2018_Jun_25_1007,59.8558096987,untitled.py,001,293,
23,0,23,0,None,0.38,1,27,1.94857391156,3.46275490336,90,right,right,2018_Jun_25_1007,59.8558096987,untitled.py,001,293,
24,0,24,0,None,0.38,0,24,11.7804179024,13.9673184725,90,right,left,2018_Jun_25_1007,59.8558096987,untitled.py,001,293,
25,0,25,0,None,0.38,1,32,2.29165466595,3.89917070512,90,right,right,2018_Jun_25_1007,59.8558096987,untitled.py,001,293,
26,0,26,0,None,0.38,1,29,9.36733383685,10.8072545528,90,right,right,2018_Jun_25_1007,59.8558096987,untitled.py,001,293,
27,0,27,0,None,0.38,1,26,5.35150640644,6.81738097966,90,right,right,2018_Jun_25_1007,59.8558096987,untitled.py,001,293,
28,0,28,0,None,0.38,1,23,14.1738961237,15.5503953714,90,right,right,2018_Jun_25_1007,59.8558096987,untitled.py,001,293,
29,0,29,0,None,0.38,1,23,12.5644005034,13.9126975629,90,right,right,2018_Jun_25_1007,59.8558096987,untitled.py,001,293,
30,0,30,0,None,0.38,1,17,7.35041576531,8.84800777771,90,left,left,2018_Jun_25_1007,59.8558096987,untitled.py,001,293,
31,0,31,0,None,0.38,0,14,11.0131050181,14.3941688128,90,right,left,2018_Jun_25_1007,59.8558096987,untitled.py,001,293,
32,0,32,0,None,0.38,1,14,2.88991477992,4.50696219783,90,right,right,2018_Jun_25_1007,59.8558096987,untitled.py,001,293,
33,0,33,0,None,0.38,1,19,6.19808020256,7.62824185751,90,left,left,2018_Jun_25_1007,59.8558096987,untitled.py,001,293,
34,0,34,0,None,0.38,1,16,9.49924697075,11.1017187936,90,left,left,2018_Jun_25_1007,59.8558096987,untitled.py,001,293,
35,0,35,0,None,0.38,1,13,10.5596691752,12.9852048233,90,left,left,2018_Jun_25_1007,59.8558096987,untitled.py,001,293,
36,0,36,0,None,0.38,1,10,7.3993929401,9.35068116244,90,left,left,2018_Jun_25_1007,59.8558096987,untitled.py,001,293,
37,0,37,0,None,0.38,0,7,8.42316411715,12.3950449014,90,right,left,2018_Jun_25_1007,59.8558096987,untitled.py,001,293,
38,0,38,0,None,0.38,1,15,7.89463772625,9.60233018361,90,right,right,2018_Jun_25_1007,59.8558096987,untitled.py,001,293,
39,0,39,0,None,0.38,1,12,7.7200630242,9.42637625709,90,left,left,2018_Jun_25_1007,59.8558096987,untitled.py,001,293,
40,0,40,0,None,0.38,1,9,6.81096591894,8.38270757906,90,right,right,2018_Jun_25_1007,59.8558096987,untitled.py,001,293,
41,0,41,0,None,0.38,1,6,7.36276007164,9.99562318716,90,right,right,2018_Jun_25_1007,59.8558096987,untitled.py,001,293,
42,0,42,0,None,0.38,1,3,5.67451645341,8.06859503035,90,right,right,2018_Jun_25_1007,59.8558096987,untitled.py,001,293,
43,0,43,0,None,0.38,0,3,9.0908651799,12.8510221271,90,right,left,2018_Jun_25_1007,59.8558096987,untitled.py,001,293,
44,0,44,0,None,0.38,0,11,4.69295902178,8.29668714944,90,right,left,2018_Jun_25_1007,59.8558096987,untitled.py,001,293,
45,0,45,0,None,0.38,0,19,2.19996982813,6.09365212545,90,left,right,2018_Jun_25_1007,59.8558096987,untitled.py,001,293,
46,0,46,0,None,0.38,1,19,6.88006743882,8.52238678373,90,left,left,2018_Jun_25_1007,59.8558096987,untitled.py,001,293,
47,0,47,0,None,0.38,1,24,8.66820140556,10.5328557119,90,left,left,2018_Jun_25_1007,59.8558096987,untitled.py,001,293,
48,0,48,0,None,0.38,1,21,8.93684085552,10.859862077,90,left,left,2018_Jun_25_1007,59.8558096987,untitled.py,001,293,
49,0,49,0,None,0.38,1,18,5.94745281804,7.62415949441,90,left,left,2018_Jun_25_1007,59.8558096987,untitled.py,001,293,
50,0,50,0,None,0.38,0,15,6.68193303887,8.86443444621,90,right,left,2018_Jun_25_1007,59.8558096987,untitled.py,001,293,
51,0,51,0,None,0.38,1,15,4.39971672371,5.73802033532,90,right,right,2018_Jun_25_1007,59.8558096987,untitled.py,001,293,
52,0,52,0,None,0.38,1,15,9.04783820268,10.3359552678,90,right,right,2018_Jun_25_1007,59.8558096987,untitled.py,001,293,
53,0,53,0,None,0.38,1,17,10.1658769483,11.9682258498,90,right,right,2018_Jun_25_1007,59.8558096987,untitled.py,001,293,
54,0,54,0,None,0.38,1,14,10.5526386732,12.8021421712,90,right,right,2018_Jun_25_1007,59.8558096987,untitled.py,001,293,
55,0,55,0,None,0.38,1,11,8.0388694657,9.53984067775,90,left,left,2018_Jun_25_1007,59.8558096987,untitled.py,001,293,
56,0,56,0,None,0.38,1,8,9.55231237505,11.1646726048,90,right,right,2018_Jun_25_1007,59.8558096987,untitled.py,001,293,
57,0,57,0,None,0.38,1,5,7.25648147985,8.38086879719,90,left,left,2018_Jun_25_1007,59.8558096987,untitled.py,001,293,
58,0,58,0,None,0.38,1,2,13.1171964593,14.5866047218,90,right,right,2018_Jun_25_1007,59.8558096987,untitled.py,001,293,
59,0,59,0,None,0.38,1,2,13.0690911831,14.7454913957,90,left,left,2018_Jun_25_1007,59.8558096987,untitled.py,001,293,
60,0,60,0,None,0.38,1,2,8.69513220247,10.3214073302,90,left,left,2018_Jun_25_1007,59.8558096987,untitled.py,001,293,
61,0,61,0,None,0.38,1,2,6.6142624272,8.22483388335,90,left,left,2018_Jun_25_1007,59.8558096987,untitled.py,001,293,
62,0,62,0,None,0.38,1,2,5.74183087517,7.16503913142,90,left,left,2018_Jun_25_1007,59.8558096987,untitled.py,001,293,
63,0,63,0,None,0.38,1,2,4.76275671832,6.28129636589,90,left,left,2018_Jun_25_1007,59.8558096987,untitled.py,001,293,
64,0,64,0,None,0.38,0,2,9.49407787807,46.6512428252,90,right,left,2018_Jun_25_1007,59.8558096987,untitled.py,001,293,
65,0,65,0,None,0.38,1,10,8.12887839042,10.1605768325,90,right,right,2018_Jun_25_1007,59.8558096987,untitled.py,001,293,
66,0,66,0,None,0.38,0,7,18.3445038404,20.3592300136,90,right,left,2018_Jun_25_1007,59.8558096987,untitled.py,001,293,
67,0,67,0,None,0.38,1,15,1.65108554345,3.02394103166,90,right,right,2018_Jun_25_1007,59.8558096987,untitled.py,001,293,
68,0,68,0,None,0.38,1,12,8.56481480226,10.1035799244,90,right,right,2018_Jun_25_1007,59.8558096987,untitled.py,001,293,
69,0,69,0,None,0.38,1,9,5.1509510288,6.62939842977,90,right,right,2018_Jun_25_1007,59.8558096987,untitled.py,001,293,
70,0,70,0,None,0.38,0,6,11.783529751,17.4119752655,90,right,left,2018_Jun_25_1007,59.8558096987,untitled.py,001,293,
71,0,71,0,None,0.38,1,14,8.65680079442,10.040286405,90,right,right,2018_Jun_25_1007,59.8558096987,untitled.py,001,293,
72,0,72,0,None,0.38,1,11,9.59314270318,10.8670691382,90,right,right,2018_Jun_25_1007,59.8558096987,untitled.py,001,293,
73,0,73,0,None,0.38,0,8,6.61805620603,10.3955301587,90,right,left,2018_Jun_25_1007,59.8558096987,untitled.py,001,293,
74,0,74,0,None,0.38,0,16,4.82831756584,9.60728165228,90,left,right,2018_Jun_25_1007,59.8558096987,untitled.py,001,293,
75,0,75,0,None,0.38,1,24,9.23285724875,10.6291215783,90,right,right,2018_Jun_25_1007,59.8558096987,untitled.py,001,293,
76,0,76,0,None,0.38,1,21,9.03693095036,10.4103703126,90,left,left,2018_Jun_25_1007,59.8558096987,untitled.py,001,293,
77,0,77,0,None,0.38,1,18,15.2779872864,16.7307358896,90,left,left,2018_Jun_25_1007,59.8558096987,untitled.py,001,293,
78,0,78,0,None,0.38,1,15,9.14546206314,11.0950942086,90,left,left,2018_Jun_25_1007,59.8558096987,untitled.py,001,293,
79,0,79,0,None,0.38,1,12,6.40536632482,7.63192025758,90,left,left,2018_Jun_25_1007,59.8558096987,untitled.py,001,293,
80,0,80,0,None,0.38,1,9,9.06202073116,10.669584821,90,left,left,2018_Jun_25_1007,59.8558096987,untitled.py,001,293,
81,0,81,0,None,0.38,0,6,6.00380970165,8.78849490639,90,right,left,2018_Jun_25_1007,59.8558096987,untitled.py,001,293,
82,0,82,0,None,0.38,0,6,5.57108515222,11.0329396613,90,right,left,2018_Jun_25_1007,59.8558096987,untitled.py,001,293,
83,0,83,0,None,0.38,1,22,6.39426631015,8.02905955911,90,left,left,2018_Jun_25_1007,59.8558096987,untitled.py,001,293,
84,0,84,0,None,0.38,1,19,13.6059851181,15.0910411803,90,right,right,2018_Jun_25_1007,59.8558096987,untitled.py,001,293,
85,0,85,0,None,0.38,1,16,10.2898214711,11.8973662853,90,left,left,2018_Jun_25_1007,59.8558096987,untitled.py,001,293,
86,0,86,0,None,0.38,1,16,6.96048520133,8.22196703777,90,left,left,2018_Jun_25_1007,59.8558096987,untitled.py,001,293,
87,0,87,0,None,0.38,0,10,6.1573943058,8.0078638494,90,right,left,2018_Jun_25_1007,59.8558096987,untitled.py,001,293,
88,0,88,0,None,0.38,1,18,8.2217432661,9.56306681409,90,right,right,2018_Jun_25_1007,59.8558096987,untitled.py,001,293,
89,0,89,0,None,0.38,1,15,9.64619721193,10.8856687089,90,right,right,2018_Jun_25_1007,59.8558096987,untitled.py,001,293,
90,0,90,0,None,0.38,1,12,8.87740229629,10.0896792756,90,right,right,2018_Jun_25_1007,59.8558096987,untitled.py,001,293,
91,0,91,0,None,0.38,1,12,8.99323293939,10.6879821317,90,right,right,2018_Jun_25_1007,59.8558096987,untitled.py,001,293,
92,0,92,0,None,0.38,1,6,14.2043877086,15.7507574288,90,left,left,2018_Jun_25_1007,59.8558096987,untitled.py,001,293,
93,0,93,0,None,0.38,1,3,12.3329386832,13.9302816419,90,right,right,2018_Jun_25_1007,59.8558096987,untitled.py,001,293,
94,0,94,0,None,0.38,1,3,8.77493675891,10.287816748,90,left,left,2018_Jun_25_1007,59.8558096987,untitled.py,001,293,
95,0,95,0,None,0.38,1,3,30.3380312305,32.0253129937,90,left,left,2018_Jun_25_1007,59.8558096987,untitled.py,001,293,
96,0,96,0,None,0.38,1,3,8.39807461575,9.72558076493,90,left,left,2018_Jun_25_1007,59.8558096987,untitled.py,001,293,
97,0,97,0,None,0.38,1,3,10.1070758989,13.6894663982,90,right,right,2018_Jun_25_1007,59.8558096987,untitled.py,001,293,
98,0,98,0,None,0.38,0,3,33.726822543,41.247033352,90,left,right,2018_Jun_25_1007,59.8558096987,untitled.py,001,293,
99,0,99,0,None,0.38,1,11,14.4248662889,15.8182679648,90,left,left,2018_Jun_25_1007,59.8558096987,untitled.py,001,293,
100,0,100,0,None,0.38,0,8,13.8867730396,17.434285921,90,left,right,2018_Jun_25_1007,59.8558096987,untitled.py,001,293,
101,0,101,0,None,0.38,1,8,5.57810671441,7.22918220051,90,left,left,2018_Jun_25_1007,59.8558096987,untitled.py,001,293,
102,0,102,0,None,0.38,1,13,6.81821963377,8.54667255189,90,left,left,2018_Jun_25_1007,59.8558096987,untitled.py,001,293,
103,0,103,0,None,0.38,1,10,11.4783524163,13.0712073743,90,left,left,2018_Jun_25_1007,59.8558096987,untitled.py,001,293,
104,0,104,0,None,0.38,1,10,5.67125291005,7.25037204474,90,left,left,2018_Jun_25_1007,59.8558096987,untitled.py,001,293,
105,0,105,0,None,0.38,0,4,12.715968091,14.5496296315,90,right,left,2018_Jun_25_1007,59.8558096987,untitled.py,001,293,
106,0,106,0,None,0.38,1,12,5.78411054984,7.24586113542,90,right,right,2018_Jun_25_1007,59.8558096987,untitled.py,001,293,
107,0,107,0,None,0.38,1,9,9.46099127084,10.6471596248,90,right,right,2018_Jun_25_1007,59.8558096987,untitled.py,001,293,
108,0,108,0,None,0.38,1,6,6.73026627675,9.46568963304,90,right,right,2018_Jun_25_1007,59.8558096987,untitled.py,001,293,
109,0,109,0,None,0.38,1,6,11.9151403317,13.2797347149,90,right,right,2018_Jun_25_1007,59.8558096987,untitled.py,001,293,
110,0,110,0,None,0.38,0,3,6.89875445049,9.01521087158,90,right,left,2018_Jun_25_1007,59.8558096987,untitled.py,001,293,
111,0,111,0,None,0.38,1,11,5.93355691899,7.14338889439,90,right,right,2018_Jun_25_1007,59.8558096987,untitled.py,001,293,
112,0,112,0,None,0.38,0,8,9.02547223214,9.40952858515,90,left,right,2018_Jun_25_1007,59.8558096987,untitled.py,001,293,
113,0,113,0,None,0.38,1,16,11.824015622,13.218500955,90,left,left,2018_Jun_25_1007,59.8558096987,untitled.py,001,293,
114,0,114,0,None,0.38,1,13,10.4429501519,12.1085006613,90,right,right,2018_Jun_25_1007,59.8558096987,untitled.py,001,293,
115,0,115,0,None,0.38,1,13,9.78510704637,11.2271847399,90,right,right,2018_Jun_25_1007,59.8558096987,untitled.py,001,293,
116,0,116,0,None,0.38,0,7,53.4042164581,54.1255036611,90,left,right,2018_Jun_25_1007,59.8558096987,untitled.py,001,293,
117,0,117,0,None,0.38,1,15,10.0665768972,18.9071814995,90,left,left,2018_Jun_25_1007,59.8558096987,untitled.py,001,293,
