trials.thisRepN,trials.thisTrialN,trials.thisN,trials.thisIndex,trials.thisTrial,imagename,correct,Difference,touch_delay,lick_delay,orientation,correctstim,last_choice,date,frameRate,expName,session,participant,
0,0,0,0,None,0.38,1,57,9.97100134194,12.9083081791,90,left,left,2018_Jul_03_1117,59.9949550773,untitled.py,001,293,
1,0,1,0,None,0.38,1,54,1.98350712191,4.11883828882,90,left,left,2018_Jul_03_1117,59.9949550773,untitled.py,001,293,
2,0,2,0,None,0.38,1,54,9.37457945012,13.2643629285,90,left,left,2018_Jul_03_1117,59.9949550773,untitled.py,001,293,
3,0,3,0,None,0.38,1,54,18.579935438,21.8454806404,90,left,left,2018_Jul_03_1117,59.9949550773,untitled.py,001,293,
4,0,4,0,None,0.38,1,45,3.76783976704,7.90176153649,90,left,left,2018_Jul_03_1117,59.9949550773,untitled.py,001,293,
5,0,5,0,None,0.38,1,45,5.83342296351,8.14287011418,90,left,left,2018_Jul_03_1117,59.9949550773,untitled.py,001,293,
6,0,6,0,None,0.38,1,45,3.98632451892,5.20241622906,90,left,left,2018_Jul_03_1117,59.9949550773,untitled.py,001,293,
7,0,7,0,None,0.38,1,36,4.15776474308,6.96532352548,90,left,left,2018_Jul_03_1117,59.9949550773,untitled.py,001,293,
8,0,8,0,None,0.38,1,33,4.54577858374,7.90609476902,90,left,left,2018_Jul_03_1117,59.9949550773,untitled.py,001,293,
9,0,9,0,None,0.38,1,33,8.49739589822,13.8429456819,90,left,left,2018_Jul_03_1117,59.9949550773,untitled.py,001,293,
10,0,10,0,None,0.38,1,33,4.40433546714,8.00027042534,90,left,left,2018_Jul_03_1117,59.9949550773,untitled.py,001,293,
11,0,11,0,None,0.38,1,24,6.45975200739,8.41980754491,90,right,right,2018_Jul_03_1117,59.9949550773,untitled.py,001,293,
12,0,12,0,None,0.38,1,24,5.20740960073,8.42051182501,90,right,right,2018_Jul_03_1117,59.9949550773,untitled.py,001,293,
13,0,13,0,None,0.38,1,18,4.32312151417,7.80455113668,90,right,right,2018_Jul_03_1117,59.9949550773,untitled.py,001,293,
14,0,14,0,None,0.38,0,15,4.73378599808,8.10327485763,90,left,right,2018_Jul_03_1117,59.9949550773,untitled.py,001,293,
15,0,15,0,None,0.38,1,23,2.32463483512,4.21355870645,90,left,left,2018_Jul_03_1117,59.9949550773,untitled.py,001,293,
16,0,16,0,None,0.38,1,20,13.5570498481,16.402260622,90,right,right,2018_Jul_03_1117,59.9949550773,untitled.py,001,293,
17,0,17,0,None,0.38,1,17,4.82477968559,8.65642309282,90,left,left,2018_Jul_03_1117,59.9949550773,untitled.py,001,293,
18,0,18,0,None,0.38,1,14,6.58032599185,8.87922096252,90,right,right,2018_Jul_03_1117,59.9949550773,untitled.py,001,293,
19,0,19,0,None,0.38,1,11,5.2217167262,7.54659544677,90,left,left,2018_Jul_03_1117,59.9949550773,untitled.py,001,293,
20,0,20,0,None,0.38,1,8,5.26321976632,7.76457678247,90,left,left,2018_Jul_03_1117,59.9949550773,untitled.py,001,293,
21,0,21,0,None,0.38,0,5,5.12912227679,14.0686330246,90,right,left,2018_Jul_03_1117,59.9949550773,untitled.py,001,293,
22,0,22,0,None,0.38,0,5,1.45851469971,2.01494575478,90,right,left,2018_Jul_03_1117,59.9949550773,untitled.py,001,293,
23,0,23,0,None,0.38,1,21,6.38117498159,9.58356243558,90,right,right,2018_Jul_03_1117,59.9949550773,untitled.py,001,293,
24,0,24,0,None,0.38,0,18,7.60053442512,10.9505847804,90,right,left,2018_Jul_03_1117,59.9949550773,untitled.py,001,293,
25,0,25,0,None,0.38,0,18,2.15712890867,4.23780564219,90,right,left,2018_Jul_03_1117,59.9949550773,untitled.py,001,293,
26,0,26,0,None,0.38,1,34,8.69018492568,12.0825875914,90,right,right,2018_Jul_03_1117,59.9949550773,untitled.py,001,293,
27,0,27,0,None,0.38,1,31,5.72441497445,8.26010624226,90,right,right,2018_Jul_03_1117,59.9949550773,untitled.py,001,293,
28,0,28,0,None,0.38,1,28,5.60874049645,9.34329642449,90,right,right,2018_Jul_03_1117,59.9949550773,untitled.py,001,293,
29,0,29,0,None,0.38,1,25,12.3731510565,17.1495466596,90,right,right,2018_Jul_03_1117,59.9949550773,untitled.py,001,293,
30,0,30,0,None,0.38,1,22,7.13559935708,10.0429758532,90,left,left,2018_Jul_03_1117,59.9949550773,untitled.py,001,293,
31,0,31,0,None,0.38,0,19,6.03724523634,7.03723573778,90,right,left,2018_Jul_03_1117,59.9949550773,untitled.py,001,293,
32,0,32,0,None,0.38,1,27,3.85063967668,6.47836247366,90,right,right,2018_Jul_03_1117,59.9949550773,untitled.py,001,293,
33,0,33,0,None,0.38,0,24,6.04216988478,6.90384140983,90,left,right,2018_Jul_03_1117,59.9949550773,untitled.py,001,293,
34,0,34,0,None,0.38,0,32,1.70377324522,5.79587629158,90,left,right,2018_Jul_03_1117,59.9949550773,untitled.py,001,293,
35,0,35,0,None,0.38,1,32,1.35029535834,2.55559575278,90,left,left,2018_Jul_03_1117,59.9949550773,untitled.py,001,293,
36,0,36,0,None,0.38,1,37,2.2854552744,7.70286167692,90,right,right,2018_Jul_03_1117,59.9949550773,untitled.py,001,293,
37,0,37,0,None,0.38,1,34,8.1739536738,11.1824846454,90,left,left,2018_Jul_03_1117,59.9949550773,untitled.py,001,293,
38,0,38,0,None,0.38,1,31,5.81121259835,10.3237347202,90,left,left,2018_Jul_03_1117,59.9949550773,untitled.py,001,293,
39,0,39,0,None,0.38,1,28,5.57405340578,7.59298793599,90,left,left,2018_Jul_03_1117,59.9949550773,untitled.py,001,293,
40,0,40,0,None,0.38,1,25,14.2262745677,16.6509860884,90,left,left,2018_Jul_03_1117,59.9949550773,untitled.py,001,293,
41,0,41,0,None,0.38,0,22,8.67721595895,29.9133018302,90,right,left,2018_Jul_03_1117,59.9949550773,untitled.py,001,293,
42,0,42,0,None,0.38,1,22,4.9346548235,9.14063994121,90,right,right,2018_Jul_03_1117,59.9949550773,untitled.py,001,293,
43,0,43,0,None,0.38,1,27,17.9293854386,23.6511858357,90,left,left,2018_Jul_03_1117,59.9949550773,untitled.py,001,293,
44,0,44,0,None,0.38,1,24,5.20337389223,9.88048397191,90,left,left,2018_Jul_03_1117,59.9949550773,untitled.py,001,293,
45,0,45,0,None,0.38,1,21,5.96156131569,8.40385160688,90,right,right,2018_Jul_03_1117,59.9949550773,untitled.py,001,293,
46,0,46,0,None,0.38,1,18,7.81142519508,9.76531402767,90,right,right,2018_Jul_03_1117,59.9949550773,untitled.py,001,293,
47,0,47,0,None,0.38,0,15,6.69863013364,10.9492899245,90,right,left,2018_Jul_03_1117,59.9949550773,untitled.py,001,293,
48,0,48,0,None,0.38,1,23,3.65543358121,5.7017883556,90,right,right,2018_Jul_03_1117,59.9949550773,untitled.py,001,293,
49,0,49,0,None,0.38,1,20,9.1214014627,10.034907788,90,right,right,2018_Jul_03_1117,59.9949550773,untitled.py,001,293,
50,0,50,0,None,0.38,1,17,11.8036177782,17.4863978522,90,right,right,2018_Jul_03_1117,59.9949550773,untitled.py,001,293,
51,0,51,0,None,0.38,0,14,8.10054071061,8.76393983047,90,left,right,2018_Jul_03_1117,59.9949550773,untitled.py,001,293,
52,0,52,0,None,0.38,0,22,2.12462924793,6.82518895622,90,left,right,2018_Jul_03_1117,59.9949550773,untitled.py,001,293,
53,0,53,0,None,0.38,1,30,2.32829535566,8.69114314765,90,left,left,2018_Jul_03_1117,59.9949550773,untitled.py,001,293,
54,0,54,0,None,0.38,1,27,5.35336474329,8.00268302206,90,left,left,2018_Jul_03_1117,59.9949550773,untitled.py,001,293,
55,0,55,0,None,0.38,1,24,7.79006410018,10.2415094655,90,left,left,2018_Jul_03_1117,59.9949550773,untitled.py,001,293,
56,0,56,0,None,0.38,1,21,6.99194255192,11.2641598303,90,left,left,2018_Jul_03_1117,59.9949550773,untitled.py,001,293,
57,0,57,0,None,0.38,1,18,10.8316308362,12.8059250554,90,right,right,2018_Jul_03_1117,59.9949550773,untitled.py,001,293,
58,0,58,0,None,0.38,1,15,8.97645929828,11.6409532493,90,left,left,2018_Jul_03_1117,59.9949550773,untitled.py,001,293,
59,0,59,0,None,0.38,0,12,6.73295041732,9.12765169889,90,right,left,2018_Jul_03_1117,59.9949550773,untitled.py,001,293,
60,0,60,0,None,0.38,1,20,5.53685566131,7.47572806012,90,right,right,2018_Jul_03_1117,59.9949550773,untitled.py,001,293,
61,0,61,0,None,0.38,0,17,8.34436387848,33.6292654518,90,left,right,2018_Jul_03_1117,59.9949550773,untitled.py,001,293,
62,0,62,0,None,0.38,1,25,4.86680988781,6.71721042786,90,right,right,2018_Jul_03_1117,59.9949550773,untitled.py,001,293,
63,0,63,0,None,0.38,1,22,12.8639332661,16.5243090959,90,left,left,2018_Jul_03_1117,59.9949550773,untitled.py,001,293,
64,0,64,0,None,0.38,1,19,9.14895580243,9.9391975794,90,left,left,2018_Jul_03_1117,59.9949550773,untitled.py,001,293,
65,0,65,0,None,0.38,1,16,9.31236372143,11.4853021819,90,left,left,2018_Jul_03_1117,59.9949550773,untitled.py,001,293,
66,0,66,0,None,0.38,0,13,6.03276142664,10.0880969511,90,right,left,2018_Jul_03_1117,59.9949550773,untitled.py,001,293,
67,0,67,0,None,0.38,1,13,5.377855286,8.05829288438,90,right,right,2018_Jul_03_1117,59.9949550773,untitled.py,001,293,
68,0,68,0,None,0.38,0,18,14.6517428886,15.9471505452,90,left,right,2018_Jul_03_1117,59.9949550773,untitled.py,001,293,
69,0,69,0,None,0.38,1,26,5.32197052985,9.52138274536,90,left,left,2018_Jul_03_1117,59.9949550773,untitled.py,001,293,
70,0,70,0,None,0.38,1,23,7.58415273391,10.7635928588,90,right,right,2018_Jul_03_1117,59.9949550773,untitled.py,001,293,
71,0,71,0,None,0.38,1,20,5.73572311644,8.91912547592,90,left,left,2018_Jul_03_1117,59.9949550773,untitled.py,001,293,
72,0,72,0,None,0.38,0,17,8.43143891171,11.8259848673,90,right,left,2018_Jul_03_1117,59.9949550773,untitled.py,001,293,
73,0,73,0,None,0.38,1,25,2.11404410284,5.87502741255,90,right,right,2018_Jul_03_1117,59.9949550773,untitled.py,001,293,
74,0,74,0,None,0.38,1,22,4.9049437847,11.1616057344,90,right,right,2018_Jul_03_1117,59.9949550773,untitled.py,001,293,
75,0,75,0,None,0.38,1,19,5.18447400443,7.49982050806,90,right,right,2018_Jul_03_1117,59.9949550773,untitled.py,001,293,
76,0,76,0,None,0.38,0,16,5.50122403819,9.1602770742,90,left,right,2018_Jul_03_1117,59.9949550773,untitled.py,001,293,
77,0,77,0,None,0.38,1,24,5.37451407872,7.02063502464,90,left,left,2018_Jul_03_1117,59.9949550773,untitled.py,001,293,
78,0,78,0,None,0.38,1,21,8.63032536302,11.0007744003,90,left,left,2018_Jul_03_1117,59.9949550773,untitled.py,001,293,
79,0,79,0,None,0.38,1,18,7.32314693648,9.67632953357,90,left,left,2018_Jul_03_1117,59.9949550773,untitled.py,001,293,
80,0,80,0,None,0.38,1,15,6.05041199364,8.12001776788,90,left,left,2018_Jul_03_1117,59.9949550773,untitled.py,001,293,
81,0,81,0,None,0.38,0,12,6.61176630016,8.802736382,90,right,left,2018_Jul_03_1117,59.9949550773,untitled.py,001,293,
82,0,82,0,None,0.38,1,20,1.61089356337,3.49948610738,90,right,right,2018_Jul_03_1117,59.9949550773,untitled.py,001,293,
83,0,83,0,None,0.38,0,17,5.2098702481,15.0225849934,90,left,right,2018_Jul_03_1117,59.9949550773,untitled.py,001,293,
84,0,84,0,None,0.38,1,25,1.41238676943,5.18247766048,90,left,left,2018_Jul_03_1117,59.9949550773,untitled.py,001,293,
85,0,85,0,None,0.38,1,22,7.27057992015,10.8872585762,90,right,right,2018_Jul_03_1117,59.9949550773,untitled.py,001,293,
86,0,86,0,None,0.38,1,19,5.73306104541,9.28390647378,90,left,left,2018_Jul_03_1117,59.9949550773,untitled.py,001,293,
87,0,87,0,None,0.38,0,16,7.39372238703,10.7671257108,90,right,left,2018_Jul_03_1117,59.9949550773,untitled.py,001,293,
88,0,88,0,None,0.38,1,24,5.04664140288,6.84194555506,90,right,right,2018_Jul_03_1117,59.9949550773,untitled.py,001,293,
89,0,89,0,None,0.38,1,21,10.4985130792,11.9570227498,90,right,right,2018_Jul_03_1117,59.9949550773,untitled.py,001,293,
90,0,90,0,None,0.38,1,18,6.8887109952,11.4001480639,90,right,right,2018_Jul_03_1117,59.9949550773,untitled.py,001,293,
91,0,91,0,None,0.38,1,18,7.60604378488,10.7804338261,90,right,right,2018_Jul_03_1117,59.9949550773,untitled.py,001,293,
92,0,92,0,None,0.38,1,12,7.03892422095,9.9799801372,90,left,left,2018_Jul_03_1117,59.9949550773,untitled.py,001,293,
93,0,93,0,None,0.38,1,9,9.15699425526,12.8235082952,90,left,left,2018_Jul_03_1117,59.9949550773,untitled.py,001,293,
94,0,94,0,None,0.38,1,6,5.07877760939,8.51887684036,90,left,left,2018_Jul_03_1117,59.9949550773,untitled.py,001,293,
95,0,95,0,None,0.38,0,3,7.77162432577,9.16248070635,90,right,left,2018_Jul_03_1117,59.9949550773,untitled.py,001,293,
96,0,96,0,None,0.38,1,11,36.9261487145,39.8907140428,90,right,right,2018_Jul_03_1117,59.9949550773,untitled.py,001,293,
97,0,97,0,None,0.38,1,8,6.9360753959,9.27751348354,90,left,left,2018_Jul_03_1117,59.9949550773,untitled.py,001,293,
98,0,98,0,None,0.38,0,5,11.1113116331,19.6448230157,90,right,left,2018_Jul_03_1117,59.9949550773,untitled.py,001,293,
99,0,99,0,None,0.38,1,13,3.21280637663,5.91828263085,90,right,right,2018_Jul_03_1117,59.9949550773,untitled.py,001,293,
100,0,100,0,None,0.38,0,10,5.33856761083,8.50269042514,90,left,right,2018_Jul_03_1117,59.9949550773,untitled.py,001,293,
101,0,101,0,None,0.38,0,18,2.67133755889,5.51889779326,90,left,right,2018_Jul_03_1117,59.9949550773,untitled.py,001,293,
102,0,102,0,None,0.38,1,18,17.1808713125,19.9047568897,90,left,left,2018_Jul_03_1117,59.9949550773,untitled.py,001,293,
103,0,103,0,None,0.38,1,23,6.39972761832,8.86290743668,90,right,right,2018_Jul_03_1117,59.9949550773,untitled.py,001,293,
104,0,104,0,None,0.38,1,20,4.77854978759,8.5852855593,90,left,left,2018_Jul_03_1117,59.9949550773,untitled.py,001,293,
105,0,105,0,None,0.38,1,17,9.67032513861,12.5459001074,90,right,right,2018_Jul_03_1117,59.9949550773,untitled.py,001,293,
106,0,106,0,None,0.38,0,14,5.96938521508,7.66592513863,90,right,left,2018_Jul_03_1117,59.9949550773,untitled.py,001,293,
107,0,107,0,None,0.38,0,22,2.48984493874,2.76125373505,90,left,right,2018_Jul_03_1117,59.9949550773,untitled.py,001,293,
108,0,108,0,None,0.38,1,30,8.10123214033,10.7988216383,90,right,right,2018_Jul_03_1117,59.9949550773,untitled.py,001,293,
109,0,109,0,None,0.38,1,27,7.21972904354,9.7461699741,90,right,right,2018_Jul_03_1117,59.9949550773,untitled.py,001,293,
110,0,110,0,None,0.38,1,24,5.32479742449,8.22526522167,90,left,left,2018_Jul_03_1117,59.9949550773,untitled.py,001,293,
111,0,111,0,None,0.38,1,21,7.59799136408,9.64458387811,90,left,left,2018_Jul_03_1117,59.9949550773,untitled.py,001,293,
112,0,112,0,None,0.38,1,18,7.57134747598,10.2726318575,90,left,left,2018_Jul_03_1117,59.9949550773,untitled.py,001,293,
113,0,113,0,None,0.38,1,15,8.13639666513,10.2290439149,90,left,left,2018_Jul_03_1117,59.9949550773,untitled.py,001,293,
114,0,114,0,None,0.38,1,12,4.75739262998,6.60361666139,90,left,left,2018_Jul_03_1117,59.9949550773,untitled.py,001,293,
115,0,115,0,None,0.38,0,9,5.13616339583,8.80172005109,90,right,left,2018_Jul_03_1117,59.9949550773,untitled.py,001,293,
116,0,116,0,None,0.38,0,17,6.04650283791,7.37912164815,90,left,right,2018_Jul_03_1117,59.9949550773,untitled.py,001,293,
117,0,117,0,None,0.38,1,25,5.4470674349,7.89499671012,90,left,left,2018_Jul_03_1117,59.9949550773,untitled.py,001,293,
118,0,118,0,None,0.38,1,22,6.25369229913,9.08321225177,90,right,right,2018_Jul_03_1117,59.9949550773,untitled.py,001,293,
119,0,119,0,None,0.38,1,22,9.57482305728,11.9602591945,90,right,right,2018_Jul_03_1117,59.9949550773,untitled.py,001,293,
120,0,120,0,None,0.38,0,16,29.996799035,30.2678781804,90,right,left,2018_Jul_03_1117,59.9949550773,untitled.py,001,293,
121,0,121,0,None,0.38,1,24,6.64299484994,10.7564092642,90,right,right,2018_Jul_03_1117,59.9949550773,untitled.py,001,293,
122,0,122,0,None,0.38,1,21,7.49240224622,13.9991239104,90,right,right,2018_Jul_03_1117,59.9949550773,untitled.py,001,293,
123,0,123,0,None,0.38,1,18,7.09618513007,12.377515858,90,right,right,2018_Jul_03_1117,59.9949550773,untitled.py,001,293,
124,0,124,0,None,0.38,0,15,10.7986344639,13.1046764329,90,left,right,2018_Jul_03_1117,59.9949550773,untitled.py,001,293,
125,0,125,0,None,0.38,1,23,3.53265065886,7.13150190935,90,left,left,2018_Jul_03_1117,59.9949550773,untitled.py,001,293,
126,0,126,0,None,0.38,0,20,111.039288793,116.610205487,90,left,right,2018_Jul_03_1117,59.9949550773,untitled.py,001,293,
127,0,127,0,None,0.38,1,28,3.35674254689,4.53577479813,90,left,left,2018_Jul_03_1117,59.9949550773,untitled.py,001,293,
128,0,128,0,None,0.38,1,25,9.27319366019,11.1075731693,90,left,left,2018_Jul_03_1117,59.9949550773,untitled.py,001,293,
129,0,129,0,None,0.38,1,22,11.1162354425,13.4461765392,90,left,left,2018_Jul_03_1117,59.9949550773,untitled.py,001,293,
130,0,130,0,None,0.38,1,19,5.38699248061,6.82090461161,90,left,left,2018_Jul_03_1117,59.9949550773,untitled.py,001,293,
131,0,131,0,None,0.38,1,16,6.25150347408,7.77998628374,90,left,left,2018_Jul_03_1117,59.9949550773,untitled.py,001,293,
132,0,132,0,None,0.38,0,13,4.97580306977,7.67860216834,90,right,left,2018_Jul_03_1117,59.9949550773,untitled.py,001,293,
133,0,133,0,None,0.38,1,21,4.35780692752,6.97717866302,90,right,right,2018_Jul_03_1117,59.9949550773,untitled.py,001,293,
134,0,134,0,None,0.38,1,21,5.33442518488,8.58437343314,90,right,right,2018_Jul_03_1117,59.9949550773,untitled.py,001,293,
135,0,135,0,None,0.38,1,15,6.24808935262,8.69950678106,90,right,right,2018_Jul_03_1117,59.9949550773,untitled.py,001,293,
136,0,136,0,None,0.38,1,12,7.21626519505,10.5836898265,90,right,right,2018_Jul_03_1117,59.9949550773,untitled.py,001,293,
137,0,137,0,None,0.38,0,9,10.6570379753,11.0253146701,90,left,right,2018_Jul_03_1117,59.9949550773,untitled.py,001,293,
138,0,138,0,None,0.38,0,17,5.44863076136,6.77817348205,90,left,right,2018_Jul_03_1117,59.9949550773,untitled.py,001,293,
139,0,139,0,None,0.38,1,25,80.8222765746,82.4877005322,90,left,left,2018_Jul_03_1117,59.9949550773,untitled.py,001,293,
140,0,140,0,None,0.38,1,22,15.5854878211,18.6461268123,90,right,right,2018_Jul_03_1117,59.9949550773,untitled.py,001,293,
141,0,141,0,None,0.38,1,19,18.7640630305,21.7702551587,90,left,left,2018_Jul_03_1117,59.9949550773,untitled.py,001,293,
142,0,142,0,None,0.38,1,19,5.79267867841,7.80293445103,90,left,left,2018_Jul_03_1117,59.9949550773,untitled.py,001,293,
143,0,143,0,None,0.38,1,13,29.2384079536,29.9042009525,90,left,left,2018_Jul_03_1117,59.9949550773,untitled.py,001,293,
