trials.thisRepN,trials.thisTrialN,trials.thisN,trials.thisIndex,trials.thisTrial,imagename,correct,Difference,touch_delay,lick_delay,orientation,correctstim,last_choice,date,frameRate,expName,session,participant,
0,0,0,0,None,0.38,0,0,0,0,0,,right,2018_Mai_18_1026,59.8910613876,untitled.py,001,293,
1,0,1,0,None,0.38,0,0,0,0,0,,right,2018_Mai_18_1026,59.8910613876,untitled.py,001,293,
2,0,2,0,None,0.38,0,90,2.14710975834,68.4054375626,90,left,right,2018_Mai_18_1026,59.8910613876,untitled.py,001,293,
3,0,3,0,None,0.38,1,90,1.31208603317,3.95180923818,90,left,left,2018_Mai_18_1026,59.8910613876,untitled.py,001,293,
4,0,4,0,None,0.38,0,87,4.812778719,23.6325189373,90,right,left,2018_Mai_18_1026,59.8910613876,untitled.py,001,293,
5,0,5,0,None,0.38,0,87,3.64800330764,6.05202700337,90,left,right,2018_Mai_18_1026,59.8910613876,untitled.py,001,293,
6,0,6,0,None,0.38,1,87,8.71744341799,10.5195612849,90,left,left,2018_Mai_18_1026,59.8910613876,untitled.py,001,293,
7,0,7,0,None,0.38,1,84,12.4280482575,14.0273568288,90,right,right,2018_Mai_18_1026,59.8910613876,untitled.py,001,293,
8,0,8,0,None,0.38,1,81,4.41633364023,6.00032043178,90,left,left,2018_Mai_18_1026,59.8910613876,untitled.py,001,293,
9,0,9,0,None,0.38,1,81,8.55815613433,9.8547524896,90,left,left,2018_Mai_18_1026,59.8910613876,untitled.py,001,293,
10,0,10,0,None,0.38,1,81,4.07113809162,6.12617693027,90,left,left,2018_Mai_18_1026,59.8910613876,untitled.py,001,293,
11,0,11,0,None,0.38,1,72,9.9658255449,11.3022023749,90,left,left,2018_Mai_18_1026,59.8910613876,untitled.py,001,293,
12,0,12,0,None,0.38,1,69,5.37728677806,6.41944716428,90,right,right,2018_Mai_18_1026,59.8910613876,untitled.py,001,293,
13,0,13,0,None,0.38,1,66,4.88612016337,6.22042913269,90,right,right,2018_Mai_18_1026,59.8910613876,untitled.py,001,293,
14,0,14,0,None,0.38,1,63,7.48318850575,8.82468498079,90,right,right,2018_Mai_18_1026,59.8910613876,untitled.py,001,293,
15,0,15,0,None,0.38,1,60,5.91570297349,6.85188145423,90,right,right,2018_Mai_18_1026,59.8910613876,untitled.py,001,293,
16,0,16,0,None,0.38,1,60,9.72186744399,11.0029394797,90,right,right,2018_Mai_18_1026,59.8910613876,untitled.py,001,293,
17,0,17,0,None,0.38,0,54,3.68428892479,10.8179313291,90,left,right,2018_Mai_18_1026,59.8910613876,untitled.py,001,293,
18,0,18,0,None,0.38,1,62,11.1679188276,12.5024582732,90,left,left,2018_Mai_18_1026,59.8910613876,untitled.py,001,293,
19,0,19,0,None,0.38,1,59,8.45228206366,9.94433873589,90,right,right,2018_Mai_18_1026,59.8910613876,untitled.py,001,293,
20,0,20,0,None,0.38,1,56,4.7552068769,5.96307826834,90,left,left,2018_Mai_18_1026,59.8910613876,untitled.py,001,293,
21,0,21,0,None,0.38,1,53,5.55748090893,6.94343694532,90,right,right,2018_Mai_18_1026,59.8910613876,untitled.py,001,293,
22,0,22,0,None,0.38,1,50,7.54787940928,9.02238440933,90,left,left,2018_Mai_18_1026,59.8910613876,untitled.py,001,293,
23,0,23,0,None,0.38,1,47,4.22583819996,6.42817257484,90,left,left,2018_Mai_18_1026,59.8910613876,untitled.py,001,293,
24,0,24,0,None,0.38,1,44,21.6321579977,23.7088356202,90,left,left,2018_Mai_18_1026,59.8910613876,untitled.py,001,293,
25,0,25,0,None,0.38,1,41,7.29227513564,9.06323708757,90,left,left,2018_Mai_18_1026,59.8910613876,untitled.py,001,293,
26,0,26,0,None,0.38,1,38,5.54601995507,6.72130871378,90,left,left,2018_Mai_18_1026,59.8910613876,untitled.py,001,293,
27,0,27,0,None,0.38,1,35,5.2564599691,7.04238667199,90,right,right,2018_Mai_18_1026,59.8910613876,untitled.py,001,293,
28,0,28,0,None,0.38,1,32,6.88339607418,7.86448361469,90,right,right,2018_Mai_18_1026,59.8910613876,untitled.py,001,293,
29,0,29,0,None,0.38,1,29,4.72246500594,5.96467316383,90,right,right,2018_Mai_18_1026,59.8910613876,untitled.py,001,293,
30,0,30,0,None,0.38,1,26,4.18617952848,5.47826301958,90,right,right,2018_Mai_18_1026,59.8910613876,untitled.py,001,293,
31,0,31,0,None,0.38,1,23,4.77125752019,6.17693701293,90,right,right,2018_Mai_18_1026,59.8910613876,untitled.py,001,293,
32,0,32,0,None,0.38,0,20,6.54287737678,24.2024743368,90,left,right,2018_Mai_18_1026,59.8910613876,untitled.py,001,293,
33,0,33,0,None,0.38,1,28,3.37984799733,5.39392045629,90,left,left,2018_Mai_18_1026,59.8910613876,untitled.py,001,293,
34,0,34,0,None,0.38,1,25,6.98964840523,8.38125599781,90,right,right,2018_Mai_18_1026,59.8910613876,untitled.py,001,293,
35,0,35,0,None,0.38,0,22,4.97277754568,5.84635840589,90,left,right,2018_Mai_18_1026,59.8910613876,untitled.py,001,293,
36,0,36,0,None,0.38,1,30,1.48117735633,2.87635746994,90,left,left,2018_Mai_18_1026,59.8910613876,untitled.py,001,293,
37,0,37,0,None,0.38,1,27,12.3353563091,13.6257610952,90,left,left,2018_Mai_18_1026,59.8910613876,untitled.py,001,293,
38,0,38,0,None,0.38,1,24,9.53420309001,10.6251881174,90,left,left,2018_Mai_18_1026,59.8910613876,untitled.py,001,293,
39,0,39,0,None,0.38,1,21,4.95330356224,6.2446512056,90,left,left,2018_Mai_18_1026,59.8910613876,untitled.py,001,293,
40,0,40,0,None,0.38,0,18,5.87641893048,14.513450732,90,right,left,2018_Mai_18_1026,59.8910613876,untitled.py,001,293,
41,0,41,0,None,0.38,1,26,3.63650268409,4.99422691995,90,right,right,2018_Mai_18_1026,59.8910613876,untitled.py,001,293,
42,0,42,0,None,0.38,0,23,5.72261865693,6.9117287253,90,left,right,2018_Mai_18_1026,59.8910613876,untitled.py,001,293,
43,0,43,0,None,0.38,1,31,4.4205802693,5.4766848858,90,right,right,2018_Mai_18_1026,59.8910613876,untitled.py,001,293,
44,0,44,0,None,0.38,1,31,5.82975908951,6.92982571805,90,right,right,2018_Mai_18_1026,59.8910613876,untitled.py,001,293,
45,0,45,0,None,0.38,0,25,4.6485463935,5.23365288042,90,left,right,2018_Mai_18_1026,59.8910613876,untitled.py,001,293,
46,0,46,0,None,0.38,0,33,3.47652760334,7.08627521107,90,left,right,2018_Mai_18_1026,59.8910613876,untitled.py,001,293,
47,0,47,0,None,0.38,1,41,5.4106175506,6.66110497271,90,left,left,2018_Mai_18_1026,59.8910613876,untitled.py,001,293,
48,0,48,0,None,0.38,1,38,6.35278757499,7.47168341232,90,right,right,2018_Mai_18_1026,59.8910613876,untitled.py,001,293,
49,0,49,0,None,0.38,1,35,19.3375954207,21.2935437325,90,left,left,2018_Mai_18_1026,59.8910613876,untitled.py,001,293,
50,0,50,0,None,0.38,1,32,5.57849028287,6.94490864058,90,left,left,2018_Mai_18_1026,59.8910613876,untitled.py,001,293,
51,0,51,0,None,0.38,1,29,7.94928685063,9.2417776559,90,left,left,2018_Mai_18_1026,59.8910613876,untitled.py,001,293,
52,0,52,0,None,0.38,1,26,7.22495764145,9.16444408451,90,left,left,2018_Mai_18_1026,59.8910613876,untitled.py,001,293,
53,0,53,0,None,0.38,1,23,6.48004341335,7.99149053846,90,right,right,2018_Mai_18_1026,59.8910613876,untitled.py,001,293,
54,0,54,0,None,0.38,1,20,11.5980098031,12.9652399956,90,left,left,2018_Mai_18_1026,59.8910613876,untitled.py,001,293,
55,0,55,0,None,0.38,1,17,8.7841580424,9.82153150742,90,right,right,2018_Mai_18_1026,59.8910613876,untitled.py,001,293,
56,0,56,0,None,0.38,1,14,8.25007256493,9.20917435037,90,right,right,2018_Mai_18_1026,59.8910613876,untitled.py,001,293,
57,0,57,0,None,0.38,0,11,4.02199888532,5.15006991103,90,left,right,2018_Mai_18_1026,59.8910613876,untitled.py,001,293,
58,0,58,0,None,0.38,1,19,5.95831062319,7.44465176435,90,right,right,2018_Mai_18_1026,59.8910613876,untitled.py,001,293,
59,0,59,0,None,0.38,1,16,5.18961795443,7.00096073677,90,left,left,2018_Mai_18_1026,59.8910613876,untitled.py,001,293,
60,0,60,0,None,0.38,0,13,9.02734425734,11.0520208573,90,right,left,2018_Mai_18_1026,59.8910613876,untitled.py,001,293,
61,0,61,0,None,0.38,0,21,1.98506765533,4.46358182398,90,right,left,2018_Mai_18_1026,59.8910613876,untitled.py,001,293,
62,0,62,0,None,0.38,1,29,2.10378609574,3.47895584512,90,right,right,2018_Mai_18_1026,59.8910613876,untitled.py,001,293,
63,0,63,0,None,0.38,0,26,4.04722304083,7.79159613862,90,left,right,2018_Mai_18_1026,59.8910613876,untitled.py,001,293,
64,0,64,0,None,0.38,1,34,2.68452806165,3.81296030642,90,left,left,2018_Mai_18_1026,59.8910613876,untitled.py,001,293,
65,0,65,0,None,0.38,1,34,12.347736933,13.6743633617,90,left,left,2018_Mai_18_1026,59.8910613876,untitled.py,001,293,
66,0,66,0,None,0.38,0,34,6.32237169822,10.371436314,90,left,right,2018_Mai_18_1026,59.8910613876,untitled.py,001,293,
67,0,67,0,None,0.38,1,36,11.2318529312,13.1402116751,90,left,left,2018_Mai_18_1026,59.8910613876,untitled.py,001,293,
68,0,68,0,None,0.38,0,33,9.93370414386,12.093112672,90,right,left,2018_Mai_18_1026,59.8910613876,untitled.py,001,293,
69,0,69,0,None,0.38,1,41,1.95777675649,3.01985866926,90,right,right,2018_Mai_18_1026,59.8910613876,untitled.py,001,293,
70,0,70,0,None,0.38,1,38,4.8458242598,6.74622361222,90,right,right,2018_Mai_18_1026,59.8910613876,untitled.py,001,293,
71,0,71,0,None,0.38,1,35,6.21788020548,7.88605255703,90,right,right,2018_Mai_18_1026,59.8910613876,untitled.py,001,293,
72,0,72,0,None,0.38,0,32,4.37971362285,9.67027178057,90,left,right,2018_Mai_18_1026,59.8910613876,untitled.py,001,293,
73,0,73,0,None,0.38,1,40,4.57566618104,5.83902926208,90,left,left,2018_Mai_18_1026,59.8910613876,untitled.py,001,293,
74,0,74,0,None,0.38,1,40,6.09583089477,7.65824455349,90,left,left,2018_Mai_18_1026,59.8910613876,untitled.py,001,293,
75,0,75,0,None,0.38,1,34,13.6644489733,15.1236375014,90,left,left,2018_Mai_18_1026,59.8910613876,untitled.py,001,293,
76,0,76,0,None,0.38,1,31,6.38953917334,7.55678584846,90,right,right,2018_Mai_18_1026,59.8910613876,untitled.py,001,293,
77,0,77,0,None,0.38,1,28,13.2974665775,14.4908713258,90,left,left,2018_Mai_18_1026,59.8910613876,untitled.py,001,293,
78,0,78,0,None,0.38,1,25,8.47289278382,9.97700294317,90,right,right,2018_Mai_18_1026,59.8910613876,untitled.py,001,293,
79,0,79,0,None,0.38,0,22,5.27806830197,7.85527797532,90,left,right,2018_Mai_18_1026,59.8910613876,untitled.py,001,293,
80,0,80,0,None,0.38,1,30,15.3398742019,16.9621144589,90,left,left,2018_Mai_18_1026,59.8910613876,untitled.py,001,293,
81,0,81,0,None,0.38,1,27,6.98060340085,8.46734654834,90,left,left,2018_Mai_18_1026,59.8910613876,untitled.py,001,293,
82,0,82,0,None,0.38,1,24,13.5735608856,14.7839404172,90,left,left,2018_Mai_18_1026,59.8910613876,untitled.py,001,293,
83,0,83,0,None,0.38,1,21,4.93984626536,7.32566457475,90,right,right,2018_Mai_18_1026,59.8910613876,untitled.py,001,293,
84,0,84,0,None,0.38,1,18,10.62305293,11.9990233395,90,right,right,2018_Mai_18_1026,59.8910613876,untitled.py,001,293,
85,0,85,0,None,0.38,1,15,5.40571525157,6.9628226494,90,right,right,2018_Mai_18_1026,59.8910613876,untitled.py,001,293,
86,0,86,0,None,0.38,1,15,5.87418345083,7.05784534081,90,right,right,2018_Mai_18_1026,59.8910613876,untitled.py,001,293,
87,0,87,0,None,0.38,0,9,6.58224187721,7.72725416231,90,left,right,2018_Mai_18_1026,59.8910613876,untitled.py,001,293,
88,0,88,0,None,0.38,1,17,40.052912032,41.6507947238,90,left,left,2018_Mai_18_1026,59.8910613876,untitled.py,001,293,
89,0,89,0,None,0.38,1,14,12.6482248444,13.8429224945,90,right,right,2018_Mai_18_1026,59.8910613876,untitled.py,001,293,
90,0,90,0,None,0.38,0,11,6.652442978,9.18332246132,90,left,right,2018_Mai_18_1026,59.8910613876,untitled.py,001,293,
91,0,91,0,None,0.38,1,19,12.0292255022,13.6804465372,90,left,left,2018_Mai_18_1026,59.8910613876,untitled.py,001,293,
92,0,92,0,None,0.38,1,16,8.31600133539,9.55543874972,90,left,left,2018_Mai_18_1026,59.8910613876,untitled.py,001,293,
93,0,93,0,None,0.38,1,13,11.6915987928,12.9877987287,90,left,left,2018_Mai_18_1026,59.8910613876,untitled.py,001,293,
94,0,94,0,None,0.38,1,10,6.3497679173,7.52308016806,90,left,left,2018_Mai_18_1026,59.8910613876,untitled.py,001,293,
95,0,95,0,None,0.38,0,7,5.37878445443,12.3549252767,90,right,left,2018_Mai_18_1026,59.8910613876,untitled.py,001,293,
96,0,96,0,None,0.38,0,15,1.640260424,4.38107077847,90,right,left,2018_Mai_18_1026,59.8910613876,untitled.py,001,293,
97,0,97,0,None,0.38,1,23,2.93739902694,4.31259308103,90,right,right,2018_Mai_18_1026,59.8910613876,untitled.py,001,293,
98,0,98,0,None,0.38,0,20,7.89481288823,10.3951876564,90,left,right,2018_Mai_18_1026,59.8910613876,untitled.py,001,293,
99,0,99,0,None,0.38,1,28,4.36384903663,5.73167930543,90,right,right,2018_Mai_18_1026,59.8910613876,untitled.py,001,293,
100,0,100,0,None,0.38,1,25,7.28434395976,8.66938256123,90,left,left,2018_Mai_18_1026,59.8910613876,untitled.py,001,293,
101,0,101,0,None,0.38,0,22,5.51390916994,9.42637122865,90,right,left,2018_Mai_18_1026,59.8910613876,untitled.py,001,293,
102,0,102,0,None,0.38,1,30,19.3487806411,20.583098131,90,left,left,2018_Mai_18_1026,59.8910613876,untitled.py,001,293,
103,0,103,0,None,0.38,0,27,5.97890625754,11.0890392493,90,right,left,2018_Mai_18_1026,59.8910613876,untitled.py,001,293,
104,0,104,0,None,0.38,1,35,2.40539342281,3.51865670085,90,right,right,2018_Mai_18_1026,59.8910613876,untitled.py,001,293,
105,0,105,0,None,0.38,1,32,5.11711600213,6.44442464062,90,left,left,2018_Mai_18_1026,59.8910613876,untitled.py,001,293,
106,0,106,0,None,0.38,1,29,7.08785977005,8.30146652716,90,right,right,2018_Mai_18_1026,59.8910613876,untitled.py,001,293,
107,0,107,0,None,0.38,1,26,6.93804827146,9.54502541525,90,left,left,2018_Mai_18_1026,59.8910613876,untitled.py,001,293,
108,0,108,0,None,0.38,1,23,7.49610914243,10.2837234901,90,right,right,2018_Mai_18_1026,59.8910613876,untitled.py,001,293,
109,0,109,0,None,0.38,1,20,7.4821403278,8.85727934679,90,right,right,2018_Mai_18_1026,59.8910613876,untitled.py,001,293,
110,0,110,0,None,0.38,1,17,30.5570118548,31.8354391409,90,right,right,2018_Mai_18_1026,59.8910613876,untitled.py,001,293,
111,0,111,0,None,0.38,0,14,16.1712368471,26.6251277747,90,left,right,2018_Mai_18_1026,59.8910613876,untitled.py,001,293,
112,0,112,0,None,0.38,1,14,4.69040925591,6.43708208716,90,left,left,2018_Mai_18_1026,59.8910613876,untitled.py,001,293,
113,0,113,0,None,0.38,1,19,10.6968966727,12.0619128968,90,left,left,2018_Mai_18_1026,59.8910613876,untitled.py,001,293,
114,0,114,0,None,0.38,1,16,5.88078624522,7.58435220132,90,left,left,2018_Mai_18_1026,59.8910613876,untitled.py,001,293,
115,0,115,0,None,0.38,1,16,11.2922952499,13.0888314019,90,left,left,2018_Mai_18_1026,59.8910613876,untitled.py,001,293,
116,0,116,0,None,0.38,0,10,4.88491274742,13.5235045238,90,right,left,2018_Mai_18_1026,59.8910613876,untitled.py,001,293,
117,0,117,0,None,0.38,1,18,11.3259743906,13.2185990119,90,right,right,2018_Mai_18_1026,59.8910613876,untitled.py,001,293,
118,0,118,0,None,0.38,1,15,5.75360862911,7.32258345699,90,left,left,2018_Mai_18_1026,59.8910613876,untitled.py,001,293,
119,0,119,0,None,0.38,1,12,15.6967994536,17.169954282,90,right,right,2018_Mai_18_1026,59.8910613876,untitled.py,001,293,
120,0,120,0,None,0.38,1,9,6.66041382356,8.26277417946,90,left,left,2018_Mai_18_1026,59.8910613876,untitled.py,001,293,
121,0,121,0,None,0.38,0,9,7.05152330827,10.2292389118,90,left,right,2018_Mai_18_1026,59.8910613876,untitled.py,001,293,
122,0,122,0,None,0.38,0,14,41.9894950334,57.9810936863,90,right,left,2018_Mai_18_1026,59.8910613876,untitled.py,001,293,
123,0,123,0,None,0.38,1,22,3.84444810706,5.0133435952,90,right,right,2018_Mai_18_1026,59.8910613876,untitled.py,001,293,
124,0,124,0,None,0.38,0,19,9.95381200686,14.6646643637,90,right,left,2018_Mai_18_1026,59.8910613876,untitled.py,001,293,
125,0,125,0,None,0.38,1,27,22.4056509975,23.7300989372,90,left,left,2018_Mai_18_1026,59.8910613876,untitled.py,001,293,
126,0,126,0,None,0.38,0,24,69.0403914463,85.0553134545,90,left,right,2018_Mai_18_1026,59.8910613876,untitled.py,001,293,
127,0,127,0,None,0.38,0,32,47.2346594329,54.7370436746,90,right,left,2018_Mai_18_1026,59.8910613876,untitled.py,001,293,
128,0,128,0,None,0.38,0,40,2.50806485186,16.2917865261,90,left,right,2018_Mai_18_1026,59.8910613876,untitled.py,001,293,
129,0,129,0,None,0.38,0,48,9.15258084494,19.5871114905,90,right,left,2018_Mai_18_1026,59.8910613876,untitled.py,001,293,
130,0,130,0,None,0.38,0,56,78.6010082287,79.7523302543,90,left,right,2018_Mai_18_1026,59.8910613876,untitled.py,001,293,
