trials.thisRepN,trials.thisTrialN,trials.thisN,trials.thisIndex,trials.thisTrial,imagename,correct,Difference,touch_delay,lick_delay,orientation,correctstim,last_choice,date,frameRate,expName,session,participant,
0,0,0,0,None,0.38,1,72,7.44333679322,10.3120516716,90,left,left,2018_Jun_18_1158,59.9950556434,untitled.py,001,293,
1,0,1,0,None,0.38,1,72,3.11389017384,5.13900928758,90,left,left,2018_Jun_18_1158,59.9950556434,untitled.py,001,293,
2,0,2,0,None,0.38,1,66,2.86135053542,5.58378089964,90,left,left,2018_Jun_18_1158,59.9950556434,untitled.py,001,293,
3,0,3,0,None,0.38,1,63,2.23596825823,4.30812100414,90,left,left,2018_Jun_18_1158,59.9950556434,untitled.py,001,293,
4,0,4,0,None,0.38,1,60,1.79051220138,4.00518669281,90,left,left,2018_Jun_18_1158,59.9950556434,untitled.py,001,293,
5,0,5,0,None,0.38,1,57,4.783553496,7.42456373572,90,right,right,2018_Jun_18_1158,59.9950556434,untitled.py,001,293,
6,0,6,0,None,0.38,1,54,4.19178498909,5.86437214725,90,right,right,2018_Jun_18_1158,59.9950556434,untitled.py,001,293,
7,0,7,0,None,0.38,1,54,4.74797271658,6.22719367966,90,right,right,2018_Jun_18_1158,59.9950556434,untitled.py,001,293,
8,0,8,0,None,0.38,1,54,5.77368743811,7.36448962055,90,right,right,2018_Jun_18_1158,59.9950556434,untitled.py,001,293,
9,0,9,0,None,0.38,1,54,8.46494372934,10.5893860813,90,right,right,2018_Jun_18_1158,59.9950556434,untitled.py,001,293,
10,0,10,0,None,0.38,1,54,6.16262932867,8.26539378613,90,right,right,2018_Jun_18_1158,59.9950556434,untitled.py,001,293,
11,0,11,0,None,0.38,1,39,7.52657698095,9.14488796797,90,left,left,2018_Jun_18_1158,59.9950556434,untitled.py,001,293,
12,0,12,0,None,0.38,0,36,4.84502890706,7.61378080212,90,right,left,2018_Jun_18_1158,59.9950556434,untitled.py,001,293,
13,0,13,0,None,0.38,1,44,1.99721920025,3.7363103414,90,right,right,2018_Jun_18_1158,59.9950556434,untitled.py,001,293,
14,0,14,0,None,0.38,1,41,7.41227977257,9.16085200757,90,left,left,2018_Jun_18_1158,59.9950556434,untitled.py,001,293,
15,0,15,0,None,0.38,1,38,6.18789734412,8.20873099752,90,right,right,2018_Jun_18_1158,59.9950556434,untitled.py,001,293,
16,0,16,0,None,0.38,1,35,3.83129643556,5.93876707833,90,left,left,2018_Jun_18_1158,59.9950556434,untitled.py,001,293,
17,0,17,0,None,0.38,1,32,5.36138894688,6.98184461985,90,left,left,2018_Jun_18_1158,59.9950556434,untitled.py,001,293,
18,0,18,0,None,0.38,1,29,6.19594501611,7.77939291205,90,left,left,2018_Jun_18_1158,59.9950556434,untitled.py,001,293,
19,0,19,0,None,0.38,1,26,5.43824396748,7.13110381365,90,left,left,2018_Jun_18_1158,59.9950556434,untitled.py,001,293,
20,0,20,0,None,0.38,0,23,6.9963419931,15.5912631359,90,right,left,2018_Jun_18_1158,59.9950556434,untitled.py,001,293,
21,0,21,0,None,0.38,1,31,1.43967040442,3.21758603398,90,right,right,2018_Jun_18_1158,59.9950556434,untitled.py,001,293,
22,0,22,0,None,0.38,1,28,7.39196685608,8.81971256156,90,right,right,2018_Jun_18_1158,59.9950556434,untitled.py,001,293,
23,0,23,0,None,0.38,1,25,5.44110913482,7.52686416823,90,right,right,2018_Jun_18_1158,59.9950556434,untitled.py,001,293,
24,0,24,0,None,0.38,1,22,5.27696872037,7.78420134354,90,right,right,2018_Jun_18_1158,59.9950556434,untitled.py,001,293,
25,0,25,0,None,0.38,1,19,6.00575520098,8.68725550361,90,left,left,2018_Jun_18_1158,59.9950556434,untitled.py,001,293,
26,0,26,0,None,0.38,1,16,13.3912296109,15.9010326732,90,right,right,2018_Jun_18_1158,59.9950556434,untitled.py,001,293,
27,0,27,0,None,0.38,0,13,5.21728823055,7.45793473721,90,left,right,2018_Jun_18_1158,59.9950556434,untitled.py,001,293,
28,0,28,0,None,0.38,0,21,2.69937743526,8.38643207494,90,left,right,2018_Jun_18_1158,59.9950556434,untitled.py,001,293,
29,0,29,0,None,0.38,1,29,9.83373389672,11.4991748948,90,left,left,2018_Jun_18_1158,59.9950556434,untitled.py,001,293,
30,0,30,0,None,0.38,1,26,6.35073731374,7.93703249935,90,left,left,2018_Jun_18_1158,59.9950556434,untitled.py,001,293,
31,0,31,0,None,0.38,1,23,4.45054078102,6.14477203041,90,left,left,2018_Jun_18_1158,59.9950556434,untitled.py,001,293,
32,0,32,0,None,0.38,1,20,5.83806992229,7.39939154219,90,left,left,2018_Jun_18_1158,59.9950556434,untitled.py,001,293,
33,0,33,0,None,0.38,0,17,5.32897561044,6.22440058738,90,right,left,2018_Jun_18_1158,59.9950556434,untitled.py,001,293,
34,0,34,0,None,0.38,1,25,6.18371916004,8.38245475385,90,right,right,2018_Jun_18_1158,59.9950556434,untitled.py,001,293,
35,0,35,0,None,0.38,1,22,8.74082041159,10.9894260308,90,left,left,2018_Jun_18_1158,59.9950556434,untitled.py,001,293,
36,0,36,0,None,0.38,0,19,9.49344008788,13.2896655863,90,right,left,2018_Jun_18_1158,59.9950556434,untitled.py,001,293,
37,0,37,0,None,0.38,1,27,2.55675847083,4.03027898818,90,left,left,2018_Jun_18_1158,59.9950556434,untitled.py,001,293,
38,0,38,0,None,0.38,1,24,11.1653752085,12.9146475317,90,right,right,2018_Jun_18_1158,59.9950556434,untitled.py,001,293,
39,0,39,0,None,0.38,1,21,7.63751985226,9.14052624069,90,right,right,2018_Jun_18_1158,59.9950556434,untitled.py,001,293,
40,0,40,0,None,0.38,1,18,8.92197472043,10.9213265935,90,right,right,2018_Jun_18_1158,59.9950556434,untitled.py,001,293,
41,0,41,0,None,0.38,1,18,8.28787485603,10.0417905068,90,right,right,2018_Jun_18_1158,59.9950556434,untitled.py,001,293,
42,0,42,0,None,0.38,1,12,6.31488471385,8.53642097022,90,left,left,2018_Jun_18_1158,59.9950556434,untitled.py,001,293,
43,0,43,0,None,0.38,0,9,7.55992479529,10.3377426462,90,right,left,2018_Jun_18_1158,59.9950556434,untitled.py,001,293,
44,0,44,0,None,0.38,1,17,4.89260115474,6.29711262137,90,right,right,2018_Jun_18_1158,59.9950556434,untitled.py,001,293,
45,0,45,0,None,0.38,1,14,10.8475387236,12.835664589,90,left,left,2018_Jun_18_1158,59.9950556434,untitled.py,001,293,
46,0,46,0,None,0.38,0,11,6.98618371878,14.4378134655,90,right,left,2018_Jun_18_1158,59.9950556434,untitled.py,001,293,
47,0,47,0,None,0.38,1,19,2.03889432922,3.9998645084,90,right,right,2018_Jun_18_1158,59.9950556434,untitled.py,001,293,
48,0,48,0,None,0.38,1,16,6.60105739627,7.81325559504,90,left,left,2018_Jun_18_1158,59.9950556434,untitled.py,001,293,
49,0,49,0,None,0.38,1,13,8.5368592944,10.207494528,90,left,left,2018_Jun_18_1158,59.9950556434,untitled.py,001,293,
50,0,50,0,None,0.38,1,13,6.92007252295,8.19439761154,90,left,left,2018_Jun_18_1158,59.9950556434,untitled.py,001,293,
51,0,51,0,None,0.38,0,7,5.70633642003,13.7350146463,90,right,left,2018_Jun_18_1158,59.9950556434,untitled.py,001,293,
52,0,52,0,None,0.38,1,15,4.89220110327,6.81830679625,90,right,right,2018_Jun_18_1158,59.9950556434,untitled.py,001,293,
53,0,53,0,None,0.38,1,12,8.13766358607,9.4957314413,90,right,right,2018_Jun_18_1158,59.9950556434,untitled.py,001,293,
54,0,54,0,None,0.38,1,9,6.8506880058,8.13915930595,90,right,right,2018_Jun_18_1158,59.9950556434,untitled.py,001,293,
55,0,55,0,None,0.38,1,6,9.19021076709,11.6570550175,90,right,right,2018_Jun_18_1158,59.9950556434,untitled.py,001,293,
56,0,56,0,None,0.38,1,3,6.46942083444,8.79885292705,90,left,left,2018_Jun_18_1158,59.9950556434,untitled.py,001,293,
57,0,57,0,None,0.38,1,3,10.2111773975,12.4383389503,90,right,right,2018_Jun_18_1158,59.9950556434,untitled.py,001,293,
58,0,58,0,None,0.38,1,3,6.73799156025,8.01807352621,90,left,left,2018_Jun_18_1158,59.9950556434,untitled.py,001,293,
59,0,59,0,None,0.38,0,3,5.38957800437,8.12372047268,90,right,left,2018_Jun_18_1158,59.9950556434,untitled.py,001,293,
60,0,60,0,None,0.38,1,11,5.15315410215,6.94051785953,90,right,right,2018_Jun_18_1158,59.9950556434,untitled.py,001,293,
61,0,61,0,None,0.38,0,8,7.30900826771,11.0868772427,90,left,right,2018_Jun_18_1158,59.9950556434,untitled.py,001,293,
62,0,62,0,None,0.38,1,16,3.93279732484,5.42028945033,90,left,left,2018_Jun_18_1158,59.9950556434,untitled.py,001,293,
63,0,63,0,None,0.38,1,13,8.72772545088,10.1998882536,90,left,left,2018_Jun_18_1158,59.9950556434,untitled.py,001,293,
64,0,64,0,None,0.38,0,10,11.7308724988,14.3235972729,90,left,right,2018_Jun_18_1158,59.9950556434,untitled.py,001,293,
65,0,65,0,None,0.38,1,18,3.59074547235,5.4191270126,90,left,left,2018_Jun_18_1158,59.9950556434,untitled.py,001,293,
66,0,66,0,None,0.38,1,15,9.4596916642,11.0971187679,90,left,left,2018_Jun_18_1158,59.9950556434,untitled.py,001,293,
67,0,67,0,None,0.38,1,12,9.21817409713,10.6620838679,90,left,left,2018_Jun_18_1158,59.9950556434,untitled.py,001,293,
68,0,68,0,None,0.38,1,9,6.07533499412,7.34442729503,90,left,left,2018_Jun_18_1158,59.9950556434,untitled.py,001,293,
69,0,69,0,None,0.38,0,6,10.1540525407,43.2744753873,90,right,left,2018_Jun_18_1158,59.9950556434,untitled.py,001,293,
70,0,70,0,None,0.38,0,14,10.3638711069,13.4560149405,90,right,left,2018_Jun_18_1158,59.9950556434,untitled.py,001,293,
71,0,71,0,None,0.38,1,22,2.13182932511,3.68140336312,90,right,right,2018_Jun_18_1158,59.9950556434,untitled.py,001,293,
72,0,72,0,None,0.38,1,19,7.53628324252,9.21997907571,90,right,right,2018_Jun_18_1158,59.9950556434,untitled.py,001,293,
73,0,73,0,None,0.38,1,16,16.7225806629,19.6793899778,90,right,right,2018_Jun_18_1158,59.9950556434,untitled.py,001,293,
74,0,74,0,None,0.38,1,13,6.44506522547,7.97849503253,90,right,right,2018_Jun_18_1158,59.9950556434,untitled.py,001,293,
75,0,75,0,None,0.38,1,10,9.07144790795,10.4193965998,90,left,left,2018_Jun_18_1158,59.9950556434,untitled.py,001,293,
76,0,76,0,None,0.38,0,7,6.25408564508,7.94372832309,90,right,left,2018_Jun_18_1158,59.9950556434,untitled.py,001,293,
77,0,77,0,None,0.38,1,15,3.95366226789,5.95299961325,90,right,right,2018_Jun_18_1158,59.9950556434,untitled.py,001,293,
78,0,78,0,None,0.38,1,12,9.58900195453,11.7420219611,90,left,left,2018_Jun_18_1158,59.9950556434,untitled.py,001,293,
79,0,79,0,None,0.38,0,9,4.76459242683,7.80868769623,90,right,left,2018_Jun_18_1158,59.9950556434,untitled.py,001,293,
80,0,80,0,None,0.38,1,17,5.82279200293,7.78088304494,90,right,right,2018_Jun_18_1158,59.9950556434,untitled.py,001,293,
81,0,81,0,None,0.38,1,14,16.8800369883,18.1999044577,90,left,left,2018_Jun_18_1158,59.9950556434,untitled.py,001,293,
82,0,82,0,None,0.38,1,11,6.18492350262,7.72147242166,90,left,left,2018_Jun_18_1158,59.9950556434,untitled.py,001,293,
83,0,83,0,None,0.38,1,8,4.74641888868,6.14232898317,90,left,left,2018_Jun_18_1158,59.9950556434,untitled.py,001,293,
84,0,84,0,None,0.38,1,5,6.05492904782,7.48043145146,90,right,right,2018_Jun_18_1158,59.9950556434,untitled.py,001,293,
85,0,85,0,None,0.38,0,2,5.64631594252,7.9885398848,90,right,left,2018_Jun_18_1158,59.9950556434,untitled.py,001,293,
86,0,86,0,None,0.38,1,10,5.75112563185,8.18387783971,90,right,right,2018_Jun_18_1158,59.9950556434,untitled.py,001,293,
87,0,87,0,None,0.38,0,7,14.0615265351,20.0218240032,90,right,left,2018_Jun_18_1158,59.9950556434,untitled.py,001,293,
88,0,88,0,None,0.38,1,15,18.0087695504,19.3161907448,90,left,left,2018_Jun_18_1158,59.9950556434,untitled.py,001,293,
89,0,89,0,None,0.38,1,12,7.49398038071,8.84569519386,90,right,right,2018_Jun_18_1158,59.9950556434,untitled.py,001,293,
90,0,90,0,None,0.38,1,9,6.31563788094,7.88498342596,90,right,right,2018_Jun_18_1158,59.9950556434,untitled.py,001,293,
91,0,91,0,None,0.38,1,6,67.1433933638,68.5591847571,90,right,right,2018_Jun_18_1158,59.9950556434,untitled.py,001,293,
92,0,92,0,None,0.38,0,3,81.2411904307,91.0335394582,90,left,right,2018_Jun_18_1158,59.9950556434,untitled.py,001,293,
93,0,93,0,None,0.38,1,11,55.082247884,56.7746789046,90,left,left,2018_Jun_18_1158,59.9950556434,untitled.py,001,293,
