trials.thisRepN,trials.thisTrialN,trials.thisN,trials.thisIndex,trials.thisTrial,imagename,correct,Difference,touch_delay,lick_delay,orientation,correctstim,last_choice,date,frameRate,expName,session,participant,
0,0,0,0,None,0.38,0,60,6.6854024739,8.20593846403,90,left,right,2018_Mai_28_1143,59.8864523025,untitled.py,001,293,
1,0,1,0,None,0.38,1,68,7.25848983601,8.93303478509,90,left,left,2018_Mai_28_1143,59.8864523025,untitled.py,001,293,
2,0,2,0,None,0.38,1,65,3.24119210709,5.08105639135,90,left,left,2018_Mai_28_1143,59.8864523025,untitled.py,001,293,
3,0,3,0,None,0.38,1,65,2.69438294508,3.54174762452,90,left,left,2018_Mai_28_1143,59.8864523025,untitled.py,001,293,
4,0,4,0,None,0.38,1,59,4.66772899916,5.9170106817,90,right,right,2018_Mai_28_1143,59.8864523025,untitled.py,001,293,
5,0,5,0,None,0.38,1,59,5.95138516231,6.60306295939,90,right,right,2018_Mai_28_1143,59.8864523025,untitled.py,001,293,
6,0,6,0,None,0.38,1,59,8.53212684859,11.0013574348,90,right,right,2018_Mai_28_1143,59.8864523025,untitled.py,001,293,
7,0,7,0,None,0.38,1,50,4.24833100336,5.12069271412,90,right,right,2018_Mai_28_1143,59.8864523025,untitled.py,001,293,
8,0,8,0,None,0.38,1,47,8.4445738215,12.3028365336,90,left,left,2018_Mai_28_1143,59.8864523025,untitled.py,001,293,
9,0,9,0,None,0.38,1,47,5.0722510824,7.35917134723,90,left,left,2018_Mai_28_1143,59.8864523025,untitled.py,001,293,
10,0,10,0,None,0.38,1,47,4.70903843921,7.12029657373,90,left,left,2018_Mai_28_1143,59.8864523025,untitled.py,001,293,
11,0,11,0,None,0.38,1,38,6.60124904104,7.28054627031,90,right,right,2018_Mai_28_1143,59.8864523025,untitled.py,001,293,
12,0,12,0,None,0.38,0,35,5.83343581343,6.38549759798,90,left,right,2018_Mai_28_1143,59.8864523025,untitled.py,001,293,
13,0,13,0,None,0.38,1,43,1.67270644708,2.40185386688,90,left,left,2018_Mai_28_1143,59.8864523025,untitled.py,001,293,
14,0,14,0,None,0.38,1,40,5.18287966773,6.18163956562,90,right,right,2018_Mai_28_1143,59.8864523025,untitled.py,001,293,
15,0,15,0,None,0.38,1,37,4.34163727518,5.37953175651,90,right,right,2018_Mai_28_1143,59.8864523025,untitled.py,001,293,
16,0,16,0,None,0.38,1,34,11.09486038,11.9218548727,90,right,right,2018_Mai_28_1143,59.8864523025,untitled.py,001,293,
17,0,17,0,None,0.38,0,31,4.75464032451,7.19826486334,90,left,right,2018_Mai_28_1143,59.8864523025,untitled.py,001,293,
18,0,18,0,None,0.38,0,31,1.8506312957,3.16197589366,90,left,right,2018_Mai_28_1143,59.8864523025,untitled.py,001,293,
19,0,19,0,None,0.38,1,47,4.68007051153,6.95670036273,90,left,left,2018_Mai_28_1143,59.8864523025,untitled.py,001,293,
20,0,20,0,None,0.38,1,47,9.22001734842,10.0160931069,90,left,left,2018_Mai_28_1143,59.8864523025,untitled.py,001,293,
21,0,21,0,None,0.38,1,41,6.00509226741,6.65847922023,90,left,left,2018_Mai_28_1143,59.8864523025,untitled.py,001,293,
22,0,22,0,None,0.38,1,38,5.5875551221,8.5180183514,90,left,left,2018_Mai_28_1143,59.8864523025,untitled.py,001,293,
23,0,23,0,None,0.38,0,35,4.31098030601,4.59926638706,90,right,left,2018_Mai_28_1143,59.8864523025,untitled.py,001,293,
24,0,24,0,None,0.38,0,43,1.57241520938,3.41863952018,90,right,left,2018_Mai_28_1143,59.8864523025,untitled.py,001,293,
25,0,25,0,None,0.38,1,51,7.07594149513,7.80593706714,90,right,right,2018_Mai_28_1143,59.8864523025,untitled.py,001,293,
26,0,26,0,None,0.38,1,48,6.69376135804,7.51611671317,90,left,left,2018_Mai_28_1143,59.8864523025,untitled.py,001,293,
27,0,27,0,None,0.38,1,45,8.86415061122,9.94268796733,90,right,right,2018_Mai_28_1143,59.8864523025,untitled.py,001,293,
28,0,28,0,None,0.38,1,42,7.1721945107,8.90437415941,90,right,right,2018_Mai_28_1143,59.8864523025,untitled.py,001,293,
29,0,29,0,None,0.38,1,39,5.83192975633,7.48431071546,90,right,right,2018_Mai_28_1143,59.8864523025,untitled.py,001,293,
30,0,30,0,None,0.38,1,36,4.44308145298,6.14054104639,90,right,right,2018_Mai_28_1143,59.8864523025,untitled.py,001,293,
31,0,31,0,None,0.38,0,33,7.33056016872,8.22042047232,90,left,right,2018_Mai_28_1143,59.8864523025,untitled.py,001,293,
32,0,32,0,None,0.38,1,41,5.01214456046,7.17924987711,90,left,left,2018_Mai_28_1143,59.8864523025,untitled.py,001,293,
33,0,33,0,None,0.38,1,38,12.5723411776,13.203724775,90,right,right,2018_Mai_28_1143,59.8864523025,untitled.py,001,293,
34,0,34,0,None,0.38,1,35,6.85119812703,8.69906594232,90,left,left,2018_Mai_28_1143,59.8864523025,untitled.py,001,293,
35,0,35,0,None,0.38,1,32,5.28508120449,7.5013145525,90,left,left,2018_Mai_28_1143,59.8864523025,untitled.py,001,293,
36,0,36,0,None,0.38,1,29,7.76531514479,9.43573191576,90,left,left,2018_Mai_28_1143,59.8864523025,untitled.py,001,293,
37,0,37,0,None,0.38,1,26,11.3563818866,12.2146887383,90,left,left,2018_Mai_28_1143,59.8864523025,untitled.py,001,293,
38,0,38,0,None,0.38,1,26,13.2479038541,13.9156255894,90,left,left,2018_Mai_28_1143,59.8864523025,untitled.py,001,293,
39,0,39,0,None,0.38,1,20,14.060307106,15.5551683246,90,right,right,2018_Mai_28_1143,59.8864523025,untitled.py,001,293,
40,0,40,0,None,0.38,1,17,4.47548668878,7.34037091304,90,left,left,2018_Mai_28_1143,59.8864523025,untitled.py,001,293,
41,0,41,0,None,0.38,0,14,4.71672908124,5.53998203669,90,right,left,2018_Mai_28_1143,59.8864523025,untitled.py,001,293,
42,0,42,0,None,0.38,1,22,1.88703145226,3.41778885294,90,right,right,2018_Mai_28_1143,59.8864523025,untitled.py,001,293,
43,0,43,0,None,0.38,1,19,4.57579217479,5.25987800164,90,right,right,2018_Mai_28_1143,59.8864523025,untitled.py,001,293,
44,0,44,0,None,0.38,1,16,5.54851608258,6.90088488907,90,right,right,2018_Mai_28_1143,59.8864523025,untitled.py,001,293,
45,0,45,0,None,0.38,1,13,4.61446803994,5.43897115439,90,right,right,2018_Mai_28_1143,59.8864523025,untitled.py,001,293,
46,0,46,0,None,0.38,0,10,7.39252335159,9.0241821236,90,left,right,2018_Mai_28_1143,59.8864523025,untitled.py,001,293,
47,0,47,0,None,0.38,1,18,14.8262664666,17.2220877232,90,left,left,2018_Mai_28_1143,59.8864523025,untitled.py,001,293,
48,0,48,0,None,0.38,1,15,9.74286117358,10.9632928204,90,right,right,2018_Mai_28_1143,59.8864523025,untitled.py,001,293,
49,0,49,0,None,0.38,0,12,9.58562107757,10.3882730906,90,left,right,2018_Mai_28_1143,59.8864523025,untitled.py,001,293,
50,0,50,0,None,0.38,0,20,1.96975090401,2.26353265531,90,left,right,2018_Mai_28_1143,59.8864523025,untitled.py,001,293,
51,0,51,0,None,0.38,1,28,8.06177293509,8.97762592742,90,left,left,2018_Mai_28_1143,59.8864523025,untitled.py,001,293,
52,0,52,0,None,0.38,1,25,5.1670270944,7.20296238782,90,left,left,2018_Mai_28_1143,59.8864523025,untitled.py,001,293,
53,0,53,0,None,0.38,1,22,8.4289992163,9.14277010085,90,left,left,2018_Mai_28_1143,59.8864523025,untitled.py,001,293,
54,0,54,0,None,0.38,1,22,13.7802963783,15.8635700904,90,left,left,2018_Mai_28_1143,59.8864523025,untitled.py,001,293,
55,0,55,0,None,0.38,1,16,4.45477958815,6.23523520445,90,right,right,2018_Mai_28_1143,59.8864523025,untitled.py,001,293,
56,0,56,0,None,0.38,0,13,5.30402215896,5.88255825778,90,left,right,2018_Mai_28_1143,59.8864523025,untitled.py,001,293,
57,0,57,0,None,0.38,0,21,5.89046512917,6.14125258941,90,left,right,2018_Mai_28_1143,59.8864523025,untitled.py,001,293,
58,0,58,0,None,0.38,1,29,8.55581309879,9.59119888116,90,left,left,2018_Mai_28_1143,59.8864523025,untitled.py,001,293,
59,0,59,0,None,0.38,1,26,5.00384546071,5.77751865098,90,right,right,2018_Mai_28_1143,59.8864523025,untitled.py,001,293,
60,0,60,0,None,0.38,1,23,6.87471508281,8.6606783825,90,left,left,2018_Mai_28_1143,59.8864523025,untitled.py,001,293,
61,0,61,0,None,0.38,0,20,7.01130618528,11.8844777755,90,right,left,2018_Mai_28_1143,59.8864523025,untitled.py,001,293,
62,0,62,0,None,0.38,1,28,1.21282537282,3.68023868976,90,right,right,2018_Mai_28_1143,59.8864523025,untitled.py,001,293,
63,0,63,0,None,0.38,0,25,5.62853044132,6.18391890544,90,right,left,2018_Mai_28_1143,59.8864523025,untitled.py,001,293,
64,0,64,0,None,0.38,0,33,7.62717216881,8.6634256593,90,left,right,2018_Mai_28_1143,59.8864523025,untitled.py,001,293,
65,0,65,0,None,0.38,1,41,4.41880099289,5.05787523277,90,right,right,2018_Mai_28_1143,59.8864523025,untitled.py,001,293,
66,0,66,0,None,0.38,1,38,5.51196087757,7.04280124977,90,right,right,2018_Mai_28_1143,59.8864523025,untitled.py,001,293,
67,0,67,0,None,0.38,1,38,7.06609499222,9.6205500979,90,right,right,2018_Mai_28_1143,59.8864523025,untitled.py,001,293,
68,0,68,0,None,0.38,1,38,5.41080556298,7.42023218004,90,right,right,2018_Mai_28_1143,59.8864523025,untitled.py,001,293,
69,0,69,0,None,0.38,1,29,7.55743006477,8.21574501786,90,left,left,2018_Mai_28_1143,59.8864523025,untitled.py,001,293,
70,0,70,0,None,0.38,1,26,6.50473370217,8.41464795126,90,left,left,2018_Mai_28_1143,59.8864523025,untitled.py,001,293,
71,0,71,0,None,0.38,1,23,9.41328213504,11.3459604504,90,left,left,2018_Mai_28_1143,59.8864523025,untitled.py,001,293,
72,0,72,0,None,0.38,1,20,11.4096132331,12.7244367651,90,left,left,2018_Mai_28_1143,59.8864523025,untitled.py,001,293,
73,0,73,0,None,0.38,1,17,5.39583773911,8.04416203732,90,left,left,2018_Mai_28_1143,59.8864523025,untitled.py,001,293,
74,0,74,0,None,0.38,0,14,5.33286018204,7.68538627122,90,right,left,2018_Mai_28_1143,59.8864523025,untitled.py,001,293,
75,0,75,0,None,0.38,1,22,5.7929270342,7.57393746963,90,right,right,2018_Mai_28_1143,59.8864523025,untitled.py,001,293,
76,0,76,0,None,0.38,0,19,5.14949162537,5.73578709038,90,left,right,2018_Mai_28_1143,59.8864523025,untitled.py,001,293,
77,0,77,0,None,0.38,0,27,1.34165431652,3.06526024966,90,left,right,2018_Mai_28_1143,59.8864523025,untitled.py,001,293,
78,0,78,0,None,0.38,1,35,5.52399453009,6.23703738861,90,left,left,2018_Mai_28_1143,59.8864523025,untitled.py,001,293,
79,0,79,0,None,0.38,1,32,5.46726720827,7.16491816705,90,right,right,2018_Mai_28_1143,59.8864523025,untitled.py,001,293,
80,0,80,0,None,0.38,0,29,4.87990680384,5.2832030328,90,left,right,2018_Mai_28_1143,59.8864523025,untitled.py,001,293,
81,0,81,0,None,0.38,0,37,1.71912547573,2.93661708431,90,left,right,2018_Mai_28_1143,59.8864523025,untitled.py,001,293,
82,0,82,0,None,0.38,1,45,40.3510597018,42.2340004109,90,left,left,2018_Mai_28_1143,59.8864523025,untitled.py,001,293,
83,0,83,0,None,0.38,1,42,10.5555382036,11.7634744076,90,right,right,2018_Mai_28_1143,59.8864523025,untitled.py,001,293,
84,0,84,0,None,0.38,1,39,9.67394654872,10.4629937601,90,left,left,2018_Mai_28_1143,59.8864523025,untitled.py,001,293,
85,0,85,0,None,0.38,0,36,5.82623853022,9.00081239361,90,left,right,2018_Mai_28_1143,59.8864523025,untitled.py,001,293,
86,0,86,0,None,0.38,1,44,5.65802916279,8.2974039996,90,left,left,2018_Mai_28_1143,59.8864523025,untitled.py,001,293,
87,0,87,0,None,0.38,1,41,7.92183196452,8.73601365555,90,left,left,2018_Mai_28_1143,59.8864523025,untitled.py,001,293,
88,0,88,0,None,0.38,1,38,5.53243917879,7.6173874056,90,left,left,2018_Mai_28_1143,59.8864523025,untitled.py,001,293,
89,0,89,0,None,0.38,1,35,7.31219275063,9.71755907545,90,left,left,2018_Mai_28_1143,59.8864523025,untitled.py,001,293,
90,0,90,0,None,0.38,1,32,5.47762690531,7.1840756298,90,left,left,2018_Mai_28_1143,59.8864523025,untitled.py,001,293,
91,0,91,0,None,0.38,1,29,9.26381704956,10.0835779407,90,right,right,2018_Mai_28_1143,59.8864523025,untitled.py,001,293,
92,0,92,0,None,0.38,1,26,7.09433657071,8.25977463601,90,right,right,2018_Mai_28_1143,59.8864523025,untitled.py,001,293,
93,0,93,0,None,0.38,1,23,7.9487683489,9.97727197176,90,right,right,2018_Mai_28_1143,59.8864523025,untitled.py,001,293,
94,0,94,0,None,0.38,1,20,6.93535239808,10.4962259168,90,right,right,2018_Mai_28_1143,59.8864523025,untitled.py,001,293,
95,0,95,0,None,0.38,1,17,17.8579294295,20.535495433,90,right,right,2018_Mai_28_1143,59.8864523025,untitled.py,001,293,
96,0,96,0,None,0.38,0,14,3.59116144665,4.20678941067,90,left,right,2018_Mai_28_1143,59.8864523025,untitled.py,001,293,
97,0,97,0,None,0.38,1,22,14.5525045781,21.0320395469,90,left,left,2018_Mai_28_1143,59.8864523025,untitled.py,001,293,
98,0,98,0,None,0.38,1,19,10.8086055629,11.4754481367,90,right,right,2018_Mai_28_1143,59.8864523025,untitled.py,001,293,
99,0,99,0,None,0.38,0,16,6.49442205671,7.04166227859,90,left,right,2018_Mai_28_1143,59.8864523025,untitled.py,001,293,
100,0,100,0,None,0.38,1,24,5.13176702661,5.7944596312,90,left,left,2018_Mai_28_1143,59.8864523025,untitled.py,001,293,
101,0,101,0,None,0.38,1,21,8.82027408527,12.3168411069,90,left,left,2018_Mai_28_1143,59.8864523025,untitled.py,001,293,
102,0,102,0,None,0.38,1,18,4.86648135446,5.55819133436,90,left,left,2018_Mai_28_1143,59.8864523025,untitled.py,001,293,
103,0,103,0,None,0.38,1,18,6.90613388037,9.23676081747,90,left,left,2018_Mai_28_1143,59.8864523025,untitled.py,001,293,
104,0,104,0,None,0.38,0,12,6.8348354334,9.7852894715,90,right,left,2018_Mai_28_1143,59.8864523025,untitled.py,001,293,
105,0,105,0,None,0.38,1,20,76.872330701,77.5104914173,90,right,right,2018_Mai_28_1143,59.8864523025,untitled.py,001,293,
106,0,106,0,None,0.38,1,17,8.43016388966,13.2614122746,90,left,left,2018_Mai_28_1143,59.8864523025,untitled.py,001,293,
107,0,107,0,None,0.38,1,14,9.16859712591,10.6570720579,90,right,right,2018_Mai_28_1143,59.8864523025,untitled.py,001,293,
108,0,108,0,None,0.38,1,11,4.44549349137,5.19989970792,90,right,right,2018_Mai_28_1143,59.8864523025,untitled.py,001,293,
109,0,109,0,None,0.38,1,8,7.4767318191,11.917987342,90,right,right,2018_Mai_28_1143,59.8864523025,untitled.py,001,293,
110,0,110,0,None,0.38,0,8,10.1940375101,10.8427582276,90,right,left,2018_Mai_28_1143,59.8864523025,untitled.py,001,293,
111,0,111,0,None,0.38,0,8,4.81187329674,6.86135919485,90,right,left,2018_Mai_28_1143,59.8864523025,untitled.py,001,293,
112,0,112,0,None,0.38,1,21,3.37071583141,7.15813825512,90,left,left,2018_Mai_28_1143,59.8864523025,untitled.py,001,293,
113,0,113,0,None,0.38,1,18,11.1121072653,11.8407152304,90,right,right,2018_Mai_28_1143,59.8864523025,untitled.py,001,293,
114,0,114,0,None,0.38,1,15,14.3492983049,14.9838015726,90,left,left,2018_Mai_28_1143,59.8864523025,untitled.py,001,293,
115,0,115,0,None,0.38,1,12,5.62588178134,9.02063474571,90,right,right,2018_Mai_28_1143,59.8864523025,untitled.py,001,293,
116,0,116,0,None,0.38,1,9,5.41053066775,6.05377080012,90,right,right,2018_Mai_28_1143,59.8864523025,untitled.py,001,293,
117,0,117,0,None,0.38,1,6,6.45674799476,8.09701847611,90,right,right,2018_Mai_28_1143,59.8864523025,untitled.py,001,293,
118,0,118,0,None,0.38,0,3,5.18780319812,6.03677031538,90,left,right,2018_Mai_28_1143,59.8864523025,untitled.py,001,293,
119,0,119,0,None,0.38,1,11,15.2496079807,16.950451524,90,left,left,2018_Mai_28_1143,59.8864523025,untitled.py,001,293,
120,0,120,0,None,0.38,0,11,14.3545676894,14.633752055,90,left,right,2018_Mai_28_1143,59.8864523025,untitled.py,001,293,
121,0,121,0,None,0.38,1,16,10.2021974861,11.3462166279,90,right,right,2018_Mai_28_1143,59.8864523025,untitled.py,001,293,
122,0,122,0,None,0.38,1,13,26.1060000644,36.5914550591,90,left,left,2018_Mai_28_1143,59.8864523025,untitled.py,001,293,
123,0,123,0,None,0.38,0,10,12.4066871628,12.939881186,90,left,right,2018_Mai_28_1143,59.8864523025,untitled.py,001,293,
