trials.thisRepN,trials.thisTrialN,trials.thisN,trials.thisIndex,trials.thisTrial,imagename,correct,Difference,touch_delay,lick_delay,orientation,correctstim,last_choice,date,frameRate,expName,session,participant,
0,0,0,0,None,0.38,1,90,4.84578095819,7.05573334038,90,left,left,2019_Feb_27_1604,59.9952567556,untitled.py,001,1218,
1,0,1,0,None,0.38,0,90,8.67640188907,11.2479295552,90,right,left,2019_Feb_27_1604,59.9952567556,untitled.py,001,1218,
2,0,2,0,None,0.38,1,90,2.95504791808,5.3609408458,90,right,right,2019_Feb_27_1604,59.9952567556,untitled.py,001,1218,
3,0,3,0,None,0.38,1,90,9.2649096463,11.8643227002,45,right,right,2019_Feb_27_1604,59.9952567556,untitled.py,001,1218,
4,0,4,0,None,0.38,1,90,6.95285182894,10.0634485668,45,left,left,2019_Feb_27_1604,59.9952567556,untitled.py,001,1218,
5,0,5,0,None,0.38,1,90,4.32135732332,6.78690978879,90,left,left,2019_Feb_27_1604,59.9952567556,untitled.py,001,1218,
6,0,6,0,None,0.38,1,90,2.41011106165,4.52513014927,90,left,left,2019_Feb_27_1604,59.9952567556,untitled.py,001,1218,
7,0,7,0,None,0.38,1,90,6.48315386451,11.7612442363,90,left,left,2019_Feb_27_1604,59.9952567556,untitled.py,001,1218,
8,0,8,0,None,0.38,0,90,6.43013567367,12.0293162958,90,left,right,2019_Feb_27_1604,59.9952567556,untitled.py,001,1218,
9,0,9,0,None,0.38,1,90,2.11014276958,4.89039249404,90,left,left,2019_Feb_27_1604,59.9952567556,untitled.py,001,1218,
10,0,10,0,None,0.38,1,90,2.55657660402,5.76573670673,90,left,left,2019_Feb_27_1604,59.9952567556,untitled.py,001,1218,
11,0,11,0,None,0.38,1,90,3.9711737106,6.00455756247,45,right,right,2019_Feb_27_1604,59.9952567556,untitled.py,001,1218,
12,0,12,0,None,0.38,1,90,3.47671338118,5.74508799304,45,right,right,2019_Feb_27_1604,59.9952567556,untitled.py,001,1218,
13,0,13,0,None,0.38,1,90,4.14129756717,6.62408434594,45,right,right,2019_Feb_27_1604,59.9952567556,untitled.py,001,1218,
14,0,14,0,None,0.38,0,90,4.04399525636,8.56339618581,45,right,left,2019_Feb_27_1604,59.9952567556,untitled.py,001,1218,
15,0,15,0,None,0.38,0,90,4.24532698985,14.7418479164,45,right,left,2019_Feb_27_1604,59.9952567556,untitled.py,001,1218,
16,0,16,0,None,0.38,0,90,3.88720493804,8.58263354696,90,left,right,2019_Feb_27_1604,59.9952567556,untitled.py,001,1218,
17,0,17,0,None,0.38,1,90,4.33252550254,6.33760184603,90,left,left,2019_Feb_27_1604,59.9952567556,untitled.py,001,1218,
18,0,18,0,None,0.38,0,90,8.77549437154,14.1048736642,90,left,right,2019_Feb_27_1604,59.9952567556,untitled.py,001,1218,
19,0,19,0,None,0.38,0,90,4.99300832924,7.90780224861,45,right,left,2019_Feb_27_1604,59.9952567556,untitled.py,001,1218,
20,0,20,0,None,0.38,1,90,2.1069038104,4.11647234496,45,left,left,2019_Feb_27_1604,59.9952567556,untitled.py,001,1218,
21,0,21,0,None,0.38,1,90,3.27929136244,6.50064184132,90,left,left,2019_Feb_27_1604,59.9952567556,untitled.py,001,1218,
22,0,22,0,None,0.38,1,90,2.21295499848,4.5800170133,90,left,left,2019_Feb_27_1604,59.9952567556,untitled.py,001,1218,
23,0,23,0,None,0.38,0,90,2.45166159386,9.00575799437,45,right,left,2019_Feb_27_1604,59.9952567556,untitled.py,001,1218,
24,0,24,0,None,0.38,0,90,4.61705831328,19.7381102906,45,right,left,2019_Feb_27_1604,59.9952567556,untitled.py,001,1218,
25,0,25,0,None,0.38,1,90,2.87494863174,6.17449200945,45,right,right,2019_Feb_27_1604,59.9952567556,untitled.py,001,1218,
26,0,26,0,None,0.38,1,90,3.46497250348,7.04617961223,90,right,right,2019_Feb_27_1604,59.9952567556,untitled.py,001,1218,
27,0,27,0,None,0.38,1,90,3.81475634471,7.13814772543,90,right,right,2019_Feb_27_1604,59.9952567556,untitled.py,001,1218,
28,0,28,0,None,0.38,1,90,3.54029799881,7.14630909794,45,right,right,2019_Feb_27_1604,59.9952567556,untitled.py,001,1218,
29,0,29,0,None,0.38,1,90,4.18606722361,7.00557165785,90,left,left,2019_Feb_27_1604,59.9952567556,untitled.py,001,1218,
30,0,30,0,None,0.38,0,90,2.38122442935,8.50870292174,45,right,left,2019_Feb_27_1604,59.9952567556,untitled.py,001,1218,
31,0,31,0,None,0.38,1,90,4.20517356257,7.53630307759,90,right,right,2019_Feb_27_1604,59.9952567556,untitled.py,001,1218,
32,0,32,0,None,0.38,1,90,2.53047216893,5.30299716862,90,left,left,2019_Feb_27_1604,59.9952567556,untitled.py,001,1218,
33,0,33,0,None,0.38,0,90,4.58309813117,9.24975464761,90,right,left,2019_Feb_27_1604,59.9952567556,untitled.py,001,1218,
34,0,34,0,None,0.38,0,90,2.85647309921,11.3031670226,90,right,left,2019_Feb_27_1604,59.9952567556,untitled.py,001,1218,
35,0,35,0,None,0.38,0,90,1.34219768154,13.236201249,90,right,left,2019_Feb_27_1604,59.9952567556,untitled.py,001,1218,
36,0,36,0,None,0.38,0,90,3.11604184331,8.65242789238,45,right,left,2019_Feb_27_1604,59.9952567556,untitled.py,001,1218,
37,0,37,0,None,0.38,1,90,5.11767724669,7.53698165552,90,right,right,2019_Feb_27_1604,59.9952567556,untitled.py,001,1218,
38,0,38,0,None,0.38,1,90,6.2286377179,9.12406297447,90,left,left,2019_Feb_27_1604,59.9952567556,untitled.py,001,1218,
39,0,39,0,None,0.38,1,90,2.50626518176,6.10775727086,45,right,right,2019_Feb_27_1604,59.9952567556,untitled.py,001,1218,
40,0,40,0,None,0.38,1,90,3.13884334458,6.51729591331,45,right,right,2019_Feb_27_1604,59.9952567556,untitled.py,001,1218,
41,0,41,0,None,0.38,0,90,6.17315776169,8.90691442625,90,right,left,2019_Feb_27_1604,59.9952567556,untitled.py,001,1218,
42,0,42,0,None,0.38,1,90,1.98749673489,6.51311856671,90,right,right,2019_Feb_27_1604,59.9952567556,untitled.py,001,1218,
43,0,43,0,None,0.38,0,90,10.5683359198,13.5399909765,90,right,left,2019_Feb_27_1604,59.9952567556,untitled.py,001,1218,
44,0,44,0,None,0.38,1,90,2.2491825078,6.01621826238,45,right,right,2019_Feb_27_1604,59.9952567556,untitled.py,001,1218,
45,0,45,0,None,0.38,1,90,2.57537145086,4.95738368982,45,left,left,2019_Feb_27_1604,59.9952567556,untitled.py,001,1218,
46,0,46,0,None,0.38,1,90,3.0784772925,6.28281834704,45,left,left,2019_Feb_27_1604,59.9952567556,untitled.py,001,1218,
47,0,47,0,None,0.38,1,90,2.78604152199,5.58015278477,90,left,left,2019_Feb_27_1604,59.9952567556,untitled.py,001,1218,
48,0,48,0,None,0.38,1,90,4.1574789533,6.45969054726,90,left,left,2019_Feb_27_1604,59.9952567556,untitled.py,001,1218,
49,0,49,0,None,0.38,1,90,6.71654525929,10.161993773,45,left,left,2019_Feb_27_1604,59.9952567556,untitled.py,001,1218,
50,0,50,0,None,0.38,1,90,3.13982140191,5.20193432405,45,left,left,2019_Feb_27_1604,59.9952567556,untitled.py,001,1218,
51,0,51,0,None,0.38,0,90,3.31039978546,48.7391875224,45,right,left,2019_Feb_27_1604,59.9952567556,untitled.py,001,1218,
52,0,52,0,None,0.38,0,90,7.38317858835,14.323460384,90,right,left,2019_Feb_27_1604,59.9952567556,untitled.py,001,1218,
53,0,53,0,None,0.38,1,90,10.4182802563,13.6909339036,45,right,right,2019_Feb_27_1604,59.9952567556,untitled.py,001,1218,
54,0,54,0,None,0.38,1,90,3.90898061066,7.10489880695,45,right,right,2019_Feb_27_1604,59.9952567556,untitled.py,001,1218,
55,0,55,0,None,0.38,1,90,3.49332359276,7.0803440102,90,right,right,2019_Feb_27_1604,59.9952567556,untitled.py,001,1218,
56,0,56,0,None,0.38,1,90,2.34719943459,5.28295635339,90,right,right,2019_Feb_27_1604,59.9952567556,untitled.py,001,1218,
57,0,57,0,None,0.38,0,90,2.7483423173,22.2224159774,45,left,right,2019_Feb_27_1604,59.9952567556,untitled.py,001,1218,
58,0,58,0,None,0.38,1,90,13.4287103529,16.8549301657,90,left,left,2019_Feb_27_1604,59.9952567556,untitled.py,001,1218,
59,0,59,0,None,0.38,1,90,5.16014577268,7.83782240481,90,right,right,2019_Feb_27_1604,59.9952567556,untitled.py,001,1218,
60,0,60,0,None,0.38,1,90,4.01456358278,7.2534956258,45,left,left,2019_Feb_27_1604,59.9952567556,untitled.py,001,1218,
61,0,61,0,None,0.38,1,90,7.5810431214,10.498517549,45,right,right,2019_Feb_27_1604,59.9952567556,untitled.py,001,1218,
62,0,62,0,None,0.38,1,90,4.41243426187,6.11784626258,90,left,left,2019_Feb_27_1604,59.9952567556,untitled.py,001,1218,
63,0,63,0,None,0.38,0,90,15.7259752287,19.4949536882,90,left,right,2019_Feb_27_1604,59.9952567556,untitled.py,001,1218,
64,0,64,0,None,0.38,1,90,10.1251390889,13.2542605275,90,left,left,2019_Feb_27_1604,59.9952567556,untitled.py,001,1218,
65,0,65,0,None,0.38,1,90,2.81239682692,6.15913754399,45,left,left,2019_Feb_27_1604,59.9952567556,untitled.py,001,1218,
66,0,66,0,None,0.38,1,90,7.27291541244,9.86345527158,45,left,left,2019_Feb_27_1604,59.9952567556,untitled.py,001,1218,
67,0,67,0,None,0.38,1,90,2.66901407862,5.17397630145,90,left,left,2019_Feb_27_1604,59.9952567556,untitled.py,001,1218,
68,0,68,0,None,0.38,1,90,4.35298955592,6.91860026901,45,left,left,2019_Feb_27_1604,59.9952567556,untitled.py,001,1218,
69,0,69,0,None,0.38,1,90,5.84854415857,9.31582980521,90,left,left,2019_Feb_27_1604,59.9952567556,untitled.py,001,1218,
70,0,70,0,None,0.38,0,90,2.87513468892,124.257474064,45,right,left,2019_Feb_27_1604,59.9952567556,untitled.py,001,1218,
