trials.thisRepN,trials.thisTrialN,trials.thisN,trials.thisIndex,trials.thisTrial,imagename,correct,Difference,touch_delay,lick_delay,orientation,correctstim,last_choice,date,frameRate,expName,session,participant,
0,0,0,0,None,0.38,0,90,2.11270287144,4.2539750163,45,left,right,2019_Mrz_05_1421,59.9370915453,untitled.py,001,1218,
1,0,1,0,None,0.38,1,90,3.35505769588,4.82150496787,90,left,left,2019_Mrz_05_1421,59.9370915453,untitled.py,001,1218,
2,0,2,0,None,0.38,1,90,6.47950675292,9.62468414288,45,left,left,2019_Mrz_05_1421,59.9370915453,untitled.py,001,1218,
3,0,3,0,None,0.38,1,90,4.84213496419,7.24526273599,90,right,right,2019_Mrz_05_1421,59.9370915453,untitled.py,001,1218,
4,0,4,0,None,0.38,1,90,5.75391481316,7.94091930671,45,left,left,2019_Mrz_05_1421,59.9370915453,untitled.py,001,1218,
5,0,5,0,None,0.38,1,90,2.47236143146,6.0648730495,45,left,left,2019_Mrz_05_1421,59.9370915453,untitled.py,001,1218,
6,0,6,0,None,0.38,0,90,2.85749753111,7.28522312199,45,left,right,2019_Mrz_05_1421,59.9370915453,untitled.py,001,1218,
7,0,7,0,None,0.38,1,90,3.47946736251,5.83467256313,45,left,left,2019_Mrz_05_1421,59.9370915453,untitled.py,001,1218,
8,0,8,0,None,0.38,1,90,6.14537797403,8.9447373898,45,left,left,2019_Mrz_05_1421,59.9370915453,untitled.py,001,1218,
9,0,9,0,None,0.38,1,90,7.78602448083,11.1223267204,45,left,left,2019_Mrz_05_1421,59.9370915453,untitled.py,001,1218,
10,0,10,0,None,0.38,1,90,10.5224133234,17.1611716014,45,left,left,2019_Mrz_05_1421,59.9370915453,untitled.py,001,1218,
11,0,11,0,None,0.38,0,90,2.82199916476,7.83944495744,90,right,left,2019_Mrz_05_1421,59.9370915453,untitled.py,001,1218,
12,0,12,0,None,0.38,0,90,3.18261119782,10.2255901239,90,right,left,2019_Mrz_05_1421,59.9370915453,untitled.py,001,1218,
13,0,13,0,None,0.38,0,90,6.07887399103,6.92066673283,90,right,left,2019_Mrz_05_1421,59.9370915453,untitled.py,001,1218,
14,0,14,0,None,0.38,1,90,1.75334770198,5.50310220988,90,right,right,2019_Mrz_05_1421,59.9370915453,untitled.py,001,1218,
15,0,15,0,None,0.38,1,90,2.33840921125,5.26187741733,45,right,right,2019_Mrz_05_1421,59.9370915453,untitled.py,001,1218,
16,0,16,0,None,0.38,1,90,3.50459150539,5.90271724481,45,right,right,2019_Mrz_05_1421,59.9370915453,untitled.py,001,1218,
17,0,17,0,None,0.38,1,90,2.6692129866,5.54658846301,45,left,left,2019_Mrz_05_1421,59.9370915453,untitled.py,001,1218,
18,0,18,0,None,0.38,1,90,7.88603411883,11.141386964,45,right,right,2019_Mrz_05_1421,59.9370915453,untitled.py,001,1218,
19,0,19,0,None,0.38,0,90,6.81433981133,9.18416949641,45,left,right,2019_Mrz_05_1421,59.9370915453,untitled.py,001,1218,
20,0,20,0,None,0.38,1,90,1.80536772136,4.37963232759,90,left,left,2019_Mrz_05_1421,59.9370915453,untitled.py,001,1218,
21,0,21,0,None,0.38,1,90,3.67049219948,7.11948976759,45,right,right,2019_Mrz_05_1421,59.9370915453,untitled.py,001,1218,
22,0,22,0,None,0.38,0,90,3.31615331001,7.82991581329,45,left,right,2019_Mrz_05_1421,59.9370915453,untitled.py,001,1218,
23,0,23,0,None,0.38,1,90,13.8672845291,17.4901257004,90,left,left,2019_Mrz_05_1421,59.9370915453,untitled.py,001,1218,
24,0,24,0,None,0.38,1,90,3.90650711185,7.46314992546,45,left,left,2019_Mrz_05_1421,59.9370915453,untitled.py,001,1218,
25,0,25,0,None,0.38,1,90,3.15600222931,5.84031517978,90,left,left,2019_Mrz_05_1421,59.9370915453,untitled.py,001,1218,
26,0,26,0,None,0.38,0,90,2.94401131989,8.63065249915,45,left,right,2019_Mrz_05_1421,59.9370915453,untitled.py,001,1218,
27,0,27,0,None,0.38,1,90,12.5299276863,15.8764426764,45,right,right,2019_Mrz_05_1421,59.9370915453,untitled.py,001,1218,
28,0,28,0,None,0.38,1,90,2.49846307281,6.09857118712,90,right,right,2019_Mrz_05_1421,59.9370915453,untitled.py,001,1218,
29,0,29,0,None,0.38,0,90,3.53519902669,11.9511951938,90,left,right,2019_Mrz_05_1421,59.9370915453,untitled.py,001,1218,
30,0,30,0,None,0.38,1,90,2.58580070932,6.35941355675,90,left,left,2019_Mrz_05_1421,59.9370915453,untitled.py,001,1218,
31,0,31,0,None,0.38,1,90,2.740115294,5.88107315311,90,right,right,2019_Mrz_05_1421,59.9370915453,untitled.py,001,1218,
32,0,32,0,None,0.38,0,90,5.96140068083,8.50345169567,90,right,left,2019_Mrz_05_1421,59.9370915453,untitled.py,001,1218,
33,0,33,0,None,0.38,1,90,4.13779125561,6.23997072247,45,left,left,2019_Mrz_05_1421,59.9370915453,untitled.py,001,1218,
34,0,34,0,None,0.38,1,90,9.55462021008,12.1800605942,45,left,left,2019_Mrz_05_1421,59.9370915453,untitled.py,001,1218,
35,0,35,0,None,0.38,1,90,5.61938235164,9.01847916422,45,right,right,2019_Mrz_05_1421,59.9370915453,untitled.py,001,1218,
36,0,36,0,None,0.38,1,90,10.065457202,12.9028435178,90,left,left,2019_Mrz_05_1421,59.9370915453,untitled.py,001,1218,
37,0,37,0,None,0.38,1,90,3.94662114885,7.75971666793,90,left,left,2019_Mrz_05_1421,59.9370915453,untitled.py,001,1218,
38,0,38,0,None,0.38,1,90,16.8895873638,19.7013410922,90,left,left,2019_Mrz_05_1421,59.9370915453,untitled.py,001,1218,
39,0,39,0,None,0.38,0,90,3.03925051924,4.90583942935,90,right,left,2019_Mrz_05_1421,59.9370915453,untitled.py,001,1218,
40,0,40,0,None,0.38,1,90,8.82339068234,12.8906880623,45,right,right,2019_Mrz_05_1421,59.9370915453,untitled.py,001,1218,
41,0,41,0,None,0.38,1,90,9.6736476284,13.2542351054,90,right,right,2019_Mrz_05_1421,59.9370915453,untitled.py,001,1218,
42,0,42,0,None,0.38,1,90,2.51480313833,6.26377290965,90,right,right,2019_Mrz_05_1421,59.9370915453,untitled.py,001,1218,
43,0,43,0,None,0.38,0,90,11.7286523846,24.6947572946,45,right,left,2019_Mrz_05_1421,59.9370915453,untitled.py,001,1218,
44,0,44,0,None,0.38,0,90,3.44576726924,9.73659864592,45,right,left,2019_Mrz_05_1421,59.9370915453,untitled.py,001,1218,
45,0,45,0,None,0.38,1,90,3.23636747128,7.0871742079,90,left,left,2019_Mrz_05_1421,59.9370915453,untitled.py,001,1218,
46,0,46,0,None,0.38,1,90,2.91018830601,6.83776457619,45,right,right,2019_Mrz_05_1421,59.9370915453,untitled.py,001,1218,
47,0,47,0,None,0.38,1,90,7.04111444333,10.5765151716,45,left,left,2019_Mrz_05_1421,59.9370915453,untitled.py,001,1218,
48,0,48,0,None,0.38,0,90,4.53007994033,7.28422997892,90,right,left,2019_Mrz_05_1421,59.9370915453,untitled.py,001,1218,
49,0,49,0,None,0.38,0,90,34.4013018414,42.7523000828,45,right,left,2019_Mrz_05_1421,59.9370915453,untitled.py,001,1218,
50,0,50,0,None,0.38,1,90,24.9973273139,27.4916884687,45,right,right,2019_Mrz_05_1421,59.9370915453,untitled.py,001,1218,
51,0,51,0,None,0.38,0,90,3.94999057136,8.88050492445,90,left,right,2019_Mrz_05_1421,59.9370915453,untitled.py,001,1218,
52,0,52,0,None,0.38,1,90,4.92632220022,9.0243352158,90,left,left,2019_Mrz_05_1421,59.9370915453,untitled.py,001,1218,
53,0,53,0,None,0.38,1,90,3.18242402317,5.01994415489,45,left,left,2019_Mrz_05_1421,59.9370915453,untitled.py,001,1218,
54,0,54,0,None,0.38,1,90,47.056066623,50.5240925872,45,right,right,2019_Mrz_05_1421,59.9370915453,untitled.py,001,1218,
55,0,55,0,None,0.38,1,90,19.6098621472,22.9648212272,90,right,right,2019_Mrz_05_1421,59.9370915453,untitled.py,001,1218,
56,0,56,0,None,0.38,1,90,10.5896690781,14.3444063421,45,right,right,2019_Mrz_05_1421,59.9370915453,untitled.py,001,1218,
57,0,57,0,None,0.38,1,90,3.9341642583,7.24083032901,90,left,left,2019_Mrz_05_1421,59.9370915453,untitled.py,001,1218,
58,0,58,0,None,0.38,1,90,6.82011652319,10.896006336,45,right,right,2019_Mrz_05_1421,59.9370915453,untitled.py,001,1218,
59,0,59,0,None,0.38,1,90,17.8324731216,20.6117928396,45,left,left,2019_Mrz_05_1421,59.9370915453,untitled.py,001,1218,
60,0,60,0,None,0.38,1,90,5.88581034739,9.44673722505,90,left,left,2019_Mrz_05_1421,59.9370915453,untitled.py,001,1218,
61,0,61,0,None,0.38,1,90,9.77380532993,13.9237324855,90,left,left,2019_Mrz_05_1421,59.9370915453,untitled.py,001,1218,
62,0,62,0,None,0.38,1,90,5.77962115302,10.4941711866,90,left,left,2019_Mrz_05_1421,59.9370915453,untitled.py,001,1218,
63,0,63,0,None,0.38,1,90,4.12240829493,7.51433659869,45,right,right,2019_Mrz_05_1421,59.9370915453,untitled.py,001,1218,
64,0,64,0,None,0.38,0,90,6.55878554401,18.2377774271,45,right,left,2019_Mrz_05_1421,59.9370915453,untitled.py,001,1218,
65,0,65,0,None,0.38,1,90,3.03527766792,6.15936997579,90,left,left,2019_Mrz_05_1421,59.9370915453,untitled.py,001,1218,
66,0,66,0,None,0.38,0,90,15.2244628856,32.4505600572,45,right,left,2019_Mrz_05_1421,59.9370915453,untitled.py,001,1218,
