trials.thisRepN,trials.thisTrialN,trials.thisN,trials.thisIndex,trials.thisTrial,imagename,correct,Difference,touch_delay,lick_delay,orientation,correctstim,last_choice,date,frameRate,expName,session,participant,
0,0,0,0,None,0.15,1,90,5.63492622692,7.15606285166,90,left,left,2018_Mrz_14_1203,59.9925419274,untitled.py,001,293,
1,0,1,0,None,0.15,0,90,3.03638646845,7.22679027636,90,left,right,2018_Mrz_14_1203,59.9925419274,untitled.py,001,293,
2,0,2,0,None,0.15,1,90,1.65591045748,3.36397726461,90,left,left,2018_Mrz_14_1203,59.9925419274,untitled.py,001,293,
3,0,3,0,None,0.15,0,90,2.92078155186,4.63283881079,90,left,right,2018_Mrz_14_1203,59.9925419274,untitled.py,001,293,
4,0,4,0,None,0.15,0,90,1.67145936098,3.80704726372,90,left,right,2018_Mrz_14_1203,59.9925419274,untitled.py,001,293,
5,0,5,0,None,0.15,1,90,1.34686950501,2.88580168784,90,left,left,2018_Mrz_14_1203,59.9925419274,untitled.py,001,293,
6,0,6,0,None,0.15,0,90,4.54708377738,5.49034220818,90,left,right,2018_Mrz_14_1203,59.9925419274,untitled.py,001,293,
7,0,7,0,None,0.15,1,90,1.20961015951,3.0838880362,90,left,left,2018_Mrz_14_1203,59.9925419274,untitled.py,001,293,
8,0,8,0,None,0.15,0,90,4.87720841635,5.77267501876,90,left,right,2018_Mrz_14_1203,59.9925419274,untitled.py,001,293,
9,0,9,0,None,0.15,1,90,1.20401782915,2.38232875988,90,left,left,2018_Mrz_14_1203,59.9925419274,untitled.py,001,293,
10,0,10,0,None,0.15,1,90,4.07407421898,5.98972942121,90,left,left,2018_Mrz_14_1203,59.9925419274,untitled.py,001,293,
11,0,11,0,None,0.15,1,90,5.55490851495,7.56900164671,90,left,left,2018_Mrz_14_1203,59.9925419274,untitled.py,001,293,
12,0,12,0,None,0.15,1,90,2.47578169871,4.70475297887,90,left,left,2018_Mrz_14_1203,59.9925419274,untitled.py,001,293,
13,0,13,0,None,0.15,1,90,7.68869032245,9.30514241289,90,left,left,2018_Mrz_14_1203,59.9925419274,untitled.py,001,293,
14,0,14,0,None,0.15,1,90,2.72548941337,4.36596159544,90,left,left,2018_Mrz_14_1203,59.9925419274,untitled.py,001,293,
15,0,15,0,None,0.15,1,90,3.50742315035,4.78448853083,90,right,right,2018_Mrz_14_1203,59.9925419274,untitled.py,001,293,
16,0,16,0,None,0.15,1,90,4.19550976437,5.54480667226,90,right,right,2018_Mrz_14_1203,59.9925419274,untitled.py,001,293,
17,0,17,0,None,0.15,0,90,6.1958461199,8.55558290239,90,right,left,2018_Mrz_14_1203,59.9925419274,untitled.py,001,293,
18,0,18,0,None,0.15,0,90,1.8072464522,3.76745368447,90,right,left,2018_Mrz_14_1203,59.9925419274,untitled.py,001,293,
19,0,19,0,None,0.15,0,90,2.45745841973,4.28610312194,90,right,left,2018_Mrz_14_1203,59.9925419274,untitled.py,001,293,
20,0,20,0,None,0.15,1,90,3.49081293773,4.90263818391,90,right,right,2018_Mrz_14_1203,59.9925419274,untitled.py,001,293,
21,0,21,0,None,0.15,1,90,5.14560845029,6.50839590002,90,left,left,2018_Mrz_14_1203,59.9925419274,untitled.py,001,293,
22,0,22,0,None,0.15,1,90,3.6979029458,6.10550056025,90,left,left,2018_Mrz_14_1203,59.9925419274,untitled.py,001,293,
23,0,23,0,None,0.15,1,90,2.7704987647,4.20698524546,90,right,right,2018_Mrz_14_1203,59.9925419274,untitled.py,001,293,
24,0,24,0,None,0.15,1,90,3.38742018864,5.58495618775,90,right,right,2018_Mrz_14_1203,59.9925419274,untitled.py,001,293,
25,0,25,0,None,0.15,1,90,3.07828369271,4.60646786075,90,right,right,2018_Mrz_14_1203,59.9925419274,untitled.py,001,293,
26,0,26,0,None,0.15,0,90,3.56272040121,6.06905793864,90,right,left,2018_Mrz_14_1203,59.9925419274,untitled.py,001,293,
27,0,27,0,None,0.15,1,90,3.92631242238,5.43325143214,90,right,right,2018_Mrz_14_1203,59.9925419274,untitled.py,001,293,
28,0,28,0,None,0.15,1,90,8.00985627994,9.55767450854,90,right,right,2018_Mrz_14_1203,59.9925419274,untitled.py,001,293,
29,0,29,0,None,0.15,1,90,3.78803311568,5.68586901389,90,right,right,2018_Mrz_14_1203,59.9925419274,untitled.py,001,293,
30,0,30,0,None,0.15,0,90,6.19049180858,9.69011955429,90,left,right,2018_Mrz_14_1203,59.9925419274,untitled.py,001,293,
31,0,31,0,None,0.15,0,90,2.59511250723,4.04730405658,90,left,right,2018_Mrz_14_1203,59.9925419274,untitled.py,001,293,
32,0,32,0,None,0.15,1,90,1.87997720391,3.20032378379,90,left,left,2018_Mrz_14_1203,59.9925419274,untitled.py,001,293,
33,0,33,0,None,0.15,0,90,4.28217161726,6.83172665816,90,left,right,2018_Mrz_14_1203,59.9925419274,untitled.py,001,293,
34,0,34,0,None,0.15,1,90,1.4020407619,2.98061792739,90,left,left,2018_Mrz_14_1203,59.9925419274,untitled.py,001,293,
35,0,35,0,None,0.15,1,90,6.93919702061,8.82712719124,90,left,left,2018_Mrz_14_1203,59.9925419274,untitled.py,001,293,
36,0,36,0,None,0.15,1,90,4.72979079746,6.68316364195,90,left,left,2018_Mrz_14_1203,59.9925419274,untitled.py,001,293,
37,0,37,0,None,0.15,1,90,3.65995147359,5.76545985602,90,left,left,2018_Mrz_14_1203,59.9925419274,untitled.py,001,293,
38,0,38,0,None,0.15,1,90,8.73535128031,10.3876366969,90,left,left,2018_Mrz_14_1203,59.9925419274,untitled.py,001,293,
39,0,39,0,None,0.15,1,90,5.96245584264,7.02554682177,90,right,right,2018_Mrz_14_1203,59.9925419274,untitled.py,001,293,
40,0,40,0,None,0.15,1,90,6.50947704259,7.96263463609,90,left,left,2018_Mrz_14_1203,59.9925419274,untitled.py,001,293,
41,0,41,0,None,0.15,1,90,4.16112410929,5.42112279683,90,left,left,2018_Mrz_14_1203,59.9925419274,untitled.py,001,293,
42,0,42,0,None,0.15,1,90,3.13989599235,4.32232448552,90,right,right,2018_Mrz_14_1203,59.9925419274,untitled.py,001,293,
43,0,43,0,None,0.15,0,90,4.32337964699,5.48579134978,90,right,left,2018_Mrz_14_1203,59.9925419274,untitled.py,001,293,
44,0,44,0,None,0.15,1,90,2.98038884904,3.97892190237,90,right,right,2018_Mrz_14_1203,59.9925419274,untitled.py,001,293,
45,0,45,0,None,0.15,1,90,4.57485043537,5.56480753887,90,right,right,2018_Mrz_14_1203,59.9925419274,untitled.py,001,293,
46,0,46,0,None,0.15,1,90,6.97851933725,7.98466983903,90,right,right,2018_Mrz_14_1203,59.9925419274,untitled.py,001,293,
47,0,47,0,None,0.15,1,90,3.74196692556,5.32406129874,90,right,right,2018_Mrz_14_1203,59.9925419274,untitled.py,001,293,
48,0,48,0,None,0.15,1,90,3.75976723339,5.16293635126,90,right,right,2018_Mrz_14_1203,59.9925419274,untitled.py,001,293,
49,0,49,0,None,0.15,0,90,24.4768826766,26.1429089457,90,left,right,2018_Mrz_14_1203,59.9925419274,untitled.py,001,293,
50,0,50,0,None,0.15,0,90,8.23520112224,12.9021520894,90,left,right,2018_Mrz_14_1203,59.9925419274,untitled.py,001,293,
51,0,51,0,None,0.15,1,90,1.51681093592,3.95935069956,90,left,left,2018_Mrz_14_1203,59.9925419274,untitled.py,001,293,
52,0,52,0,None,0.15,1,90,10.5438255416,12.4068578547,90,left,left,2018_Mrz_14_1203,59.9925419274,untitled.py,001,293,
53,0,53,0,None,0.15,1,90,7.04188437294,9.10484572686,90,left,left,2018_Mrz_14_1203,59.9925419274,untitled.py,001,293,
54,0,54,0,None,0.15,0,90,7.95323232468,13.442969148,90,left,right,2018_Mrz_14_1203,59.9925419274,untitled.py,001,293,
55,0,55,0,None,0.15,0,90,8.05426276196,15.6423062142,90,left,right,2018_Mrz_14_1203,59.9925419274,untitled.py,001,293,
56,0,56,0,None,0.15,0,90,2.12960753404,4.42530126031,90,left,right,2018_Mrz_14_1203,59.9925419274,untitled.py,001,293,
57,0,57,0,None,0.15,1,90,2.16118501127,3.57848972455,90,left,left,2018_Mrz_14_1203,59.9925419274,untitled.py,001,293,
58,0,58,0,None,0.15,1,90,3.37838663906,4.7036570292,90,right,right,2018_Mrz_14_1203,59.9925419274,untitled.py,001,293,
59,0,59,0,None,0.15,0,90,10.8307991661,14.8519493397,90,left,right,2018_Mrz_14_1203,59.9925419274,untitled.py,001,293,
60,0,60,0,None,0.15,1,90,4.47802919056,6.77172042802,90,left,left,2018_Mrz_14_1203,59.9925419274,untitled.py,001,293,
61,0,61,0,None,0.15,1,90,4.83528772555,6.66358489729,90,left,left,2018_Mrz_14_1203,59.9925419274,untitled.py,001,293,
62,0,62,0,None,0.15,1,90,4.60396754369,6.65082489513,90,left,left,2018_Mrz_14_1203,59.9925419274,untitled.py,001,293,
63,0,63,0,None,0.15,1,90,5.25141938403,6.54464184679,90,right,right,2018_Mrz_14_1203,59.9925419274,untitled.py,001,293,
64,0,64,0,None,0.15,0,90,7.57517310139,20.0038739564,90,left,right,2018_Mrz_14_1203,59.9925419274,untitled.py,001,293,
65,0,65,0,None,0.15,1,90,10.782642208,12.2235457301,90,left,left,2018_Mrz_14_1203,59.9925419274,untitled.py,001,293,
66,0,66,0,None,0.15,1,90,5.14489830378,6.56643958949,90,right,right,2018_Mrz_14_1203,59.9925419274,untitled.py,001,293,
67,0,67,0,None,0.15,1,90,6.53509733826,7.86036353838,90,right,right,2018_Mrz_14_1203,59.9925419274,untitled.py,001,293,
68,0,68,0,None,0.15,1,90,5.03821491264,6.34586323053,90,right,right,2018_Mrz_14_1203,59.9925419274,untitled.py,001,293,
69,0,69,0,None,0.15,0,90,5.52470355853,6.44725125656,90,left,right,2018_Mrz_14_1203,59.9925419274,untitled.py,001,293,
70,0,70,0,None,0.15,0,90,4.10389057826,13.2981644319,90,left,right,2018_Mrz_14_1203,59.9925419274,untitled.py,001,293,
71,0,71,0,None,0.15,1,90,2.05587497819,3.55195478722,90,right,right,2018_Mrz_14_1203,59.9925419274,untitled.py,001,293,
72,0,72,0,None,0.15,1,90,6.87101600971,8.22174745705,90,right,right,2018_Mrz_14_1203,59.9925419274,untitled.py,001,293,
73,0,73,0,None,0.15,0,90,4.29499447625,7.94506536424,90,left,right,2018_Mrz_14_1203,59.9925419274,untitled.py,001,293,
74,0,74,0,None,0.15,1,90,3.61274296045,5.3367098337,90,left,left,2018_Mrz_14_1203,59.9925419274,untitled.py,001,293,
75,0,75,0,None,0.15,1,90,5.14371407498,6.74449964985,90,left,left,2018_Mrz_14_1203,59.9925419274,untitled.py,001,293,
76,0,76,0,None,0.15,1,90,95.110229373,97.8877016492,90,left,left,2018_Mrz_14_1203,59.9925419274,untitled.py,001,293,
77,0,77,0,None,0.15,1,90,9.26157821715,11.3403519159,90,left,left,2018_Mrz_14_1203,59.9925419274,untitled.py,001,293,
78,0,78,0,None,0.15,0,90,14.1018604329,15.4032562803,90,right,left,2018_Mrz_14_1203,59.9925419274,untitled.py,001,293,
79,0,79,0,None,0.15,1,90,2.81210321467,4.36102912482,90,right,right,2018_Mrz_14_1203,59.9925419274,untitled.py,001,293,
80,0,80,0,None,0.15,1,90,4.03624231555,5.64256267156,90,left,left,2018_Mrz_14_1203,59.9925419274,untitled.py,001,293,
81,0,81,0,None,0.15,1,90,3.21132518258,6.2644062303,90,right,right,2018_Mrz_14_1203,59.9925419274,untitled.py,001,293,
82,0,82,0,None,0.15,1,90,5.3125165347,7.32498851139,90,left,left,2018_Mrz_14_1203,59.9925419274,untitled.py,001,293,
83,0,83,0,None,0.15,1,90,8.14135232288,11.8658064082,90,left,left,2018_Mrz_14_1203,59.9925419274,untitled.py,001,293,
84,0,84,0,None,0.15,1,90,4.55088286288,5.91636227444,90,right,right,2018_Mrz_14_1203,59.9925419274,untitled.py,001,293,
85,0,85,0,None,0.15,1,90,11.4411971355,12.6868967982,90,right,right,2018_Mrz_14_1203,59.9925419274,untitled.py,001,293,
86,0,86,0,None,0.15,1,90,5.9844253948,7.38433180749,90,right,right,2018_Mrz_14_1203,59.9925419274,untitled.py,001,293,
87,0,87,0,None,0.15,1,90,3.71657990105,5.18653516099,90,right,right,2018_Mrz_14_1203,59.9925419274,untitled.py,001,293,
88,0,88,0,None,0.15,0,90,8.63119307067,14.2270556735,90,left,right,2018_Mrz_14_1203,59.9925419274,untitled.py,001,293,
89,0,89,0,None,0.15,1,90,2.68386512809,5.14202391636,90,left,left,2018_Mrz_14_1203,59.9925419274,untitled.py,001,293,
90,0,90,0,None,0.15,1,90,5.0237689428,6.64158573281,90,left,left,2018_Mrz_14_1203,59.9925419274,untitled.py,001,293,
91,0,91,0,None,0.15,1,90,4.76189236343,6.61946476437,90,left,left,2018_Mrz_14_1203,59.9925419274,untitled.py,001,293,
92,0,92,0,None,0.15,0,90,86.7802061439,149.853543398,90,left,right,2018_Mrz_14_1203,59.9925419274,untitled.py,001,293,
93,0,93,0,None,0.15,0,90,74.2989759874,90.7102581467,90,left,right,2018_Mrz_14_1203,59.9925419274,untitled.py,001,293,
