trials.thisRepN,trials.thisTrialN,trials.thisN,trials.thisIndex,imagename,correct,Difference,touch_delay,lick_delay,orientation,correctstim,last_choice,date,frameRate,expName,session,participant,
0,0,0,0,0.15,0,90,3.88861489379,4.65037344132,90,left,right,2018_Apr_06_1520,59.8881555282,untitled.py,001,293,
1,0,1,0,0.15,1,90,5.97175143768,7.60286488925,90,left,left,2018_Apr_06_1520,59.8881555282,untitled.py,001,293,
2,0,2,0,0.15,0,90,2.86935462468,3.84992813332,90,left,right,2018_Apr_06_1520,59.8881555282,untitled.py,001,293,
3,0,3,0,0.15,1,90,2.53679587769,3.5824893946,90,left,left,2018_Apr_06_1520,59.8881555282,untitled.py,001,293,
4,0,4,0,0.15,0,90,5.62437125389,6.25408704179,90,left,right,2018_Apr_06_1520,59.8881555282,untitled.py,001,293,
5,0,5,0,0.15,1,90,3.64863243792,4.78075286105,90,right,right,2018_Apr_06_1520,59.8881555282,untitled.py,001,293,
6,0,6,0,0.15,0,90,3.077848721,3.85080170804,90,left,right,2018_Apr_06_1520,59.8881555282,untitled.py,001,293,
7,0,7,0,0.15,0,90,3.36939359611,4.86436181135,90,left,right,2018_Apr_06_1520,59.8881555282,untitled.py,001,293,
8,0,8,0,0.15,1,90,3.65035667941,5.2862076046,90,left,left,2018_Apr_06_1520,59.8881555282,untitled.py,001,293,
9,0,9,0,0.15,0,90,5.2644414304,6.03176213737,90,left,right,2018_Apr_06_1520,59.8881555282,untitled.py,001,293,
10,0,10,0,0.15,0,90,3.10560699754,5.38645442368,90,left,right,2018_Apr_06_1520,59.8881555282,untitled.py,001,293,
11,0,11,0,0.15,1,90,1.39944462215,2.90218896536,90,left,left,2018_Apr_06_1520,59.8881555282,untitled.py,001,293,
12,0,12,0,0.15,0,90,12.4027402924,15.9341664932,90,left,right,2018_Apr_06_1520,59.8881555282,untitled.py,001,293,
13,0,13,0,0.15,0,90,2.51542388767,3.98394349003,90,left,right,2018_Apr_06_1520,59.8881555282,untitled.py,001,293,
14,0,14,0,0.15,1,90,3.65787690894,5.12441609199,90,left,left,2018_Apr_06_1520,59.8881555282,untitled.py,001,293,
15,0,15,0,0.15,0,90,6.47885275922,7.09270954828,90,left,right,2018_Apr_06_1520,59.8881555282,untitled.py,001,293,
16,0,16,0,0.15,0,90,8.91170609672,9.61274910638,90,left,right,2018_Apr_06_1520,59.8881555282,untitled.py,001,293,
17,0,17,0,0.15,1,90,1.25411302274,3.06197240152,90,left,left,2018_Apr_06_1520,59.8881555282,untitled.py,001,293,
18,0,18,0,0.15,0,90,4.63497483619,5.33138094367,90,left,right,2018_Apr_06_1520,59.8881555282,untitled.py,001,293,
19,0,19,0,0.15,1,90,4.35601005156,6.30294213371,90,right,right,2018_Apr_06_1520,59.8881555282,untitled.py,001,293,
20,0,20,0,0.15,0,90,4.36109393792,7.89029052575,90,left,right,2018_Apr_06_1520,59.8881555282,untitled.py,001,293,
21,0,21,0,0.15,0,90,3.13089652456,6.40272492733,90,left,right,2018_Apr_06_1520,59.8881555282,untitled.py,001,293,
22,0,22,0,0.15,1,90,4.66200508724,6.37848357822,90,left,left,2018_Apr_06_1520,59.8881555282,untitled.py,001,293,
23,0,23,0,0.15,1,90,3.00139626684,4.52722371139,90,left,left,2018_Apr_06_1520,59.8881555282,untitled.py,001,293,
24,0,24,0,0.15,1,90,3.21018649018,4.64504231683,90,left,left,2018_Apr_06_1520,59.8881555282,untitled.py,001,293,
25,0,25,0,0.15,1,90,2.50518878796,3.98533193465,90,left,left,2018_Apr_06_1520,59.8881555282,untitled.py,001,293,
26,0,26,0,0.15,1,90,8.5387433319,10.3075365724,90,left,left,2018_Apr_06_1520,59.8881555282,untitled.py,001,293,
27,0,27,0,0.15,1,90,3.20529983559,4.30688760722,90,right,right,2018_Apr_06_1520,59.8881555282,untitled.py,001,293,
28,0,28,0,0.15,0,90,5.26426570975,6.62778872734,90,left,right,2018_Apr_06_1520,59.8881555282,untitled.py,001,293,
29,0,29,0,0.15,1,90,1.64001765587,2.86187825548,90,left,left,2018_Apr_06_1520,59.8881555282,untitled.py,001,293,
30,0,30,0,0.15,1,90,5.6786038449,7.42586585725,90,right,right,2018_Apr_06_1520,59.8881555282,untitled.py,001,293,
31,0,31,0,0.15,0,90,2.21074829343,4.48973877965,90,left,right,2018_Apr_06_1520,59.8881555282,untitled.py,001,293,
32,0,32,0,0.15,0,90,2.1178132975,3.02706656852,90,left,right,2018_Apr_06_1520,59.8881555282,untitled.py,001,293,
33,0,33,0,0.15,0,90,2.9968727869,3.96734557046,90,left,right,2018_Apr_06_1520,59.8881555282,untitled.py,001,293,
34,0,34,0,0.15,1,90,1.20410554973,2.90376039413,90,left,left,2018_Apr_06_1520,59.8881555282,untitled.py,001,293,
35,0,35,0,0.15,1,90,2.69287018322,3.74716702821,90,right,right,2018_Apr_06_1520,59.8881555282,untitled.py,001,293,
36,0,36,0,0.15,0,90,2.94748494571,3.68701524914,90,left,right,2018_Apr_06_1520,59.8881555282,untitled.py,001,293,
37,0,37,0,0.15,1,90,5.19681859007,6.66589915757,90,left,left,2018_Apr_06_1520,59.8881555282,untitled.py,001,293,
38,0,38,0,0.15,1,90,2.48045072768,4.50547346101,90,left,left,2018_Apr_06_1520,59.8881555282,untitled.py,001,293,
39,0,39,0,0.15,1,90,11.8932596182,13.769612339,90,left,left,2018_Apr_06_1520,59.8881555282,untitled.py,001,293,
40,0,40,0,0.15,1,90,4.63303380737,6.28230068347,90,left,left,2018_Apr_06_1520,59.8881555282,untitled.py,001,293,
41,0,41,0,0.15,0,90,4.63157188972,6.3118664523,90,left,right,2018_Apr_06_1520,59.8881555282,untitled.py,001,293,
42,0,42,0,0.15,1,90,1.87944194025,3.55906407099,90,left,left,2018_Apr_06_1520,59.8881555282,untitled.py,001,293,
43,0,43,0,0.15,1,90,5.0963778916,6.64328371343,90,right,right,2018_Apr_06_1520,59.8881555282,untitled.py,001,293,
44,0,44,0,0.15,1,90,2.81265216669,4.16705111963,90,right,right,2018_Apr_06_1520,59.8881555282,untitled.py,001,293,
45,0,45,0,0.15,1,90,6.73184105801,8.30790617243,90,left,left,2018_Apr_06_1520,59.8881555282,untitled.py,001,293,
46,0,46,0,0.15,1,90,3.09925004435,4.74464017075,90,left,left,2018_Apr_06_1520,59.8881555282,untitled.py,001,293,
47,0,47,0,0.15,1,90,6.06959236439,7.66419363355,90,right,right,2018_Apr_06_1520,59.8881555282,untitled.py,001,293,
48,0,48,0,0.15,1,90,2.75282054004,4.4447598787,90,right,right,2018_Apr_06_1520,59.8881555282,untitled.py,001,293,
49,0,49,0,0.15,1,90,3.84887353002,5.52492202221,90,right,right,2018_Apr_06_1520,59.8881555282,untitled.py,001,293,
50,0,50,0,0.15,1,90,5.08866825253,6.54751372032,90,left,left,2018_Apr_06_1520,59.8881555282,untitled.py,001,293,
51,0,51,0,0.15,0,90,9.13041098799,10.4301367911,90,left,right,2018_Apr_06_1520,59.8881555282,untitled.py,001,293,
52,0,52,0,0.15,1,90,1.45790819783,3.13764933811,90,left,left,2018_Apr_06_1520,59.8881555282,untitled.py,001,293,
53,0,53,0,0.15,1,90,2.9969512885,4.94939077453,90,left,left,2018_Apr_06_1520,59.8881555282,untitled.py,001,293,
54,0,54,0,0.15,1,90,2.94940027294,4.6654152972,90,left,left,2018_Apr_06_1520,59.8881555282,untitled.py,001,293,
55,0,55,0,0.15,0,90,6.05135680652,8.49174713546,90,left,right,2018_Apr_06_1520,59.8881555282,untitled.py,001,293,
56,0,56,0,0.15,0,90,1.24301440546,4.58776464606,90,right,left,2018_Apr_06_1520,59.8881555282,untitled.py,001,293,
57,0,57,0,0.15,1,90,12.5090194424,14.0432574531,90,right,right,2018_Apr_06_1520,59.8881555282,untitled.py,001,293,
58,0,58,0,0.15,1,90,5.33987587808,6.58479639172,90,right,right,2018_Apr_06_1520,59.8881555282,untitled.py,001,293,
59,0,59,0,0.15,1,90,4.55039090164,5.92504773651,90,right,right,2018_Apr_06_1520,59.8881555282,untitled.py,001,293,
60,0,60,0,0.15,1,90,3.27779787655,4.80470311171,90,right,right,2018_Apr_06_1520,59.8881555282,untitled.py,001,293,
61,0,61,0,0.15,1,90,3.50842048361,4.64380081826,90,right,right,2018_Apr_06_1520,59.8881555282,untitled.py,001,293,
62,0,62,0,0.15,0,90,5.66085354424,10.1515452383,90,left,right,2018_Apr_06_1520,59.8881555282,untitled.py,001,293,
63,0,63,0,0.15,0,90,4.29540514227,7.88529491877,90,right,left,2018_Apr_06_1520,59.8881555282,untitled.py,001,293,
64,0,64,0,0.15,1,90,1.29593006932,3.38092662615,90,left,left,2018_Apr_06_1520,59.8881555282,untitled.py,001,293,
65,0,65,0,0.15,1,90,3.7122620333,5.44168937672,90,left,left,2018_Apr_06_1520,59.8881555282,untitled.py,001,293,
66,0,66,0,0.15,0,90,7.47278550766,10.5102679251,90,left,right,2018_Apr_06_1520,59.8881555282,untitled.py,001,293,
67,0,67,0,0.15,1,90,2.26701885295,3.57917556561,90,left,left,2018_Apr_06_1520,59.8881555282,untitled.py,001,293,
68,0,68,0,0.15,0,90,5.67668684148,10.2691545993,90,left,right,2018_Apr_06_1520,59.8881555282,untitled.py,001,293,
69,0,69,0,0.15,0,90,4.74005858286,10.9093926742,90,left,right,2018_Apr_06_1520,59.8881555282,untitled.py,001,293,
70,0,70,0,0.15,0,90,7.83274103273,8.54880215223,90,left,right,2018_Apr_06_1520,59.8881555282,untitled.py,001,293,
71,0,71,0,0.15,1,90,8.00295568291,9.42120241539,90,left,left,2018_Apr_06_1520,59.8881555282,untitled.py,001,293,
72,0,72,0,0.15,1,90,5.40540487688,7.06421151292,90,right,right,2018_Apr_06_1520,59.8881555282,untitled.py,001,293,
73,0,73,0,0.15,1,90,2.97706384471,5.21356289696,90,left,left,2018_Apr_06_1520,59.8881555282,untitled.py,001,293,
74,0,74,0,0.15,1,90,13.3650977987,15.4501647556,90,left,left,2018_Apr_06_1520,59.8881555282,untitled.py,001,293,
75,0,75,0,0.15,0,90,94.3202099708,98.891514145,90,left,right,2018_Apr_06_1520,59.8881555282,untitled.py,001,293,
76,0,76,0,0.15,0,90,21.8977082283,24.6905380432,90,right,left,2018_Apr_06_1520,59.8881555282,untitled.py,001,293,
77,0,77,0,0.15,0,90,6.5901219289,7.80710928344,90,left,right,2018_Apr_06_1520,59.8881555282,untitled.py,001,293,
78,0,78,0,0.15,0,90,1.65146799384,4.2262234446,90,right,left,2018_Apr_06_1520,59.8881555282,untitled.py,001,293,
79,0,79,0,0.15,0,90,66.9633640588,68.3698777359,90,left,right,2018_Apr_06_1520,59.8881555282,untitled.py,001,293,
80,0,80,0,0.15,1,90,11.9025197337,13.5857579664,90,right,right,2018_Apr_06_1520,59.8881555282,untitled.py,001,293,
81,0,81,0,0.15,1,90,11.2112553411,12.6691780659,90,right,right,2018_Apr_06_1520,59.8881555282,untitled.py,001,293,
82,0,82,0,0.15,1,90,11.9943992882,13.4709296852,90,right,right,2018_Apr_06_1520,59.8881555282,untitled.py,001,293,
83,0,83,0,0.15,1,90,8.11436788754,9.40679388023,90,right,right,2018_Apr_06_1520,59.8881555282,untitled.py,001,293,
84,0,84,0,0.15,1,90,4.72002950096,6.1666245291,90,right,right,2018_Apr_06_1520,59.8881555282,untitled.py,001,293,
85,0,85,0,0.15,0,90,7.00623822301,9.17381343159,90,left,right,2018_Apr_06_1520,59.8881555282,untitled.py,001,293,
86,0,86,0,0.15,1,90,1.83250943905,3.72094945028,90,left,left,2018_Apr_06_1520,59.8881555282,untitled.py,001,293,
87,0,87,0,0.15,1,90,8.08011800382,9.87208402185,90,left,left,2018_Apr_06_1520,59.8881555282,untitled.py,001,293,
88,0,88,0,0.15,0,90,4.25966121393,6.68997204952,90,left,right,2018_Apr_06_1520,59.8881555282,untitled.py,001,293,
89,0,89,0,0.15,0,90,1.21206130947,3.65426667356,90,right,left,2018_Apr_06_1520,59.8881555282,untitled.py,001,293,
90,0,90,0,0.15,0,90,13.8880181699,19.671496517,90,left,right,2018_Apr_06_1520,59.8881555282,untitled.py,001,293,
91,0,91,0,0.15,0,90,2.39516335177,4.824495292,90,right,left,2018_Apr_06_1520,59.8881555282,untitled.py,001,293,
92,0,92,0,0.15,0,90,2.45555594356,6.80865780427,90,left,right,2018_Apr_06_1520,59.8881555282,untitled.py,001,293,
93,0,93,0,0.15,1,90,3.40482435617,5.23942623993,90,left,left,2018_Apr_06_1520,59.8881555282,untitled.py,001,293,
94,0,94,0,0.15,1,90,5.91360829379,9.26989882792,90,left,left,2018_Apr_06_1520,59.8881555282,untitled.py,001,293,
95,0,95,0,0.15,1,90,4.25284358766,6.50467140377,90,left,left,2018_Apr_06_1520,59.8881555282,untitled.py,001,293,
96,0,96,0,0.15,1,90,6.83138611192,10.1308571341,90,left,left,2018_Apr_06_1520,59.8881555282,untitled.py,001,293,
97,0,97,0,0.15,1,90,6.74243318634,9.5515675875,90,left,left,2018_Apr_06_1520,59.8881555282,untitled.py,001,293,
98,0,98,0,0.15,1,90,4.05174707959,6.16759644033,90,right,right,2018_Apr_06_1520,59.8881555282,untitled.py,001,293,
99,0,99,0,0.15,1,90,2.82729033997,4.22183182499,90,right,right,2018_Apr_06_1520,59.8881555282,untitled.py,001,293,
