trials.thisRepN,trials.thisTrialN,trials.thisN,trials.thisIndex,imagename,correct,Difference,touch_delay,lick_delay,orientation,correctstim,last_choice,date,frameRate,expName,session,participant,
0,0,0,0,0.15,1,90,17.1771082636,18.6845632615,90,right,right,2018_Feb_14_1555,59.8853500952,untitled.py,001,293,
1,0,1,0,0.15,0,90,5.84266156703,6.70810116921,90,left,right,2018_Feb_14_1555,59.8853500952,untitled.py,001,293,
2,0,2,0,0.15,0,90,6.13866399135,12.0053221844,90,left,right,2018_Feb_14_1555,59.8853500952,untitled.py,001,293,
3,0,3,0,0.15,0,90,4.27251396514,5.95847433154,90,left,right,2018_Feb_14_1555,59.8853500952,untitled.py,001,293,
4,0,4,0,0.15,0,90,6.88140783273,7.80068723857,90,right,left,2018_Feb_14_1555,59.8853500952,untitled.py,001,293,
5,0,5,0,0.15,0,90,4.60898019094,7.09310540836,90,right,left,2018_Feb_14_1555,59.8853500952,untitled.py,001,293,
6,0,6,0,0.15,1,90,1.72672085464,4.39942730125,90,right,right,2018_Feb_14_1555,59.8853500952,untitled.py,001,293,
7,0,7,0,0.15,0,90,9.82009389531,10.8079155311,90,left,right,2018_Feb_14_1555,59.8853500952,untitled.py,001,293,
8,0,8,0,0.15,1,90,1.20268302318,3.14509832952,90,right,right,2018_Feb_14_1555,59.8853500952,untitled.py,001,293,
9,0,9,0,0.15,0,90,4.43759053107,5.18504782021,90,right,left,2018_Feb_14_1555,59.8853500952,untitled.py,001,293,
10,0,10,0,0.15,1,90,1.45762128942,3.02591530513,90,right,right,2018_Feb_14_1555,59.8853500952,untitled.py,001,293,
11,0,11,0,0.15,1,90,3.38105764799,5.21840932313,90,left,left,2018_Feb_14_1555,59.8853500952,untitled.py,001,293,
12,0,12,0,0.15,1,90,11.2663888847,12.8490852881,90,left,left,2018_Feb_14_1555,59.8853500952,untitled.py,001,293,
13,0,13,0,0.15,0,90,4.96815656777,5.81382131018,90,left,right,2018_Feb_14_1555,59.8853500952,untitled.py,001,293,
14,0,14,0,0.15,0,90,1.52607300691,2.74685777165,90,left,right,2018_Feb_14_1555,59.8853500952,untitled.py,001,293,
15,0,15,0,0.15,1,90,5.69138228428,7.39146567509,90,right,right,2018_Feb_14_1555,59.8853500952,untitled.py,001,293,
16,0,16,0,0.15,0,90,8.58482740168,10.5088367378,90,left,right,2018_Feb_14_1555,59.8853500952,untitled.py,001,293,
17,0,17,0,0.15,0,90,3.70918370876,5.73687521741,90,left,right,2018_Feb_14_1555,59.8853500952,untitled.py,001,293,
18,0,18,0,0.15,1,90,4.04506773967,7.09503973275,90,left,left,2018_Feb_14_1555,59.8853500952,untitled.py,001,293,
19,0,19,0,0.15,0,90,4.95230846386,5.90677055344,90,left,right,2018_Feb_14_1555,59.8853500952,untitled.py,001,293,
20,0,20,0,0.15,0,90,3.28011185769,7.80248271767,90,left,right,2018_Feb_14_1555,59.8853500952,untitled.py,001,293,
21,0,21,0,0.15,1,90,8.54564951733,10.5419320054,90,left,left,2018_Feb_14_1555,59.8853500952,untitled.py,001,293,
22,0,22,0,0.15,1,90,8.09057547804,10.2446123734,90,left,left,2018_Feb_14_1555,59.8853500952,untitled.py,001,293,
23,0,23,0,0.15,1,90,4.64569994248,6.28654144611,90,left,left,2018_Feb_14_1555,59.8853500952,untitled.py,001,293,
24,0,24,0,0.15,0,90,5.42800383829,6.23113719746,90,left,right,2018_Feb_14_1555,59.8853500952,untitled.py,001,293,
25,0,25,0,0.15,0,90,1.26641346887,2.12617106363,90,left,right,2018_Feb_14_1555,59.8853500952,untitled.py,001,293,
26,0,26,0,0.15,1,90,1.23591573816,2.85353194363,90,right,right,2018_Feb_14_1555,59.8853500952,untitled.py,001,293,
27,0,27,0,0.15,1,90,3.58003181964,4.52195432596,90,left,left,2018_Feb_14_1555,59.8853500952,untitled.py,001,293,
28,0,28,0,0.15,0,90,8.2208705293,9.39127514791,90,right,left,2018_Feb_14_1555,59.8853500952,untitled.py,001,293,
29,0,29,0,0.15,0,90,1.88785893191,2.84531469829,90,left,right,2018_Feb_14_1555,59.8853500952,untitled.py,001,293,
30,0,30,0,0.15,0,90,2.6959429197,5.52671610471,90,left,right,2018_Feb_14_1555,59.8853500952,untitled.py,001,293,
31,0,31,0,0.15,1,90,1.43675243575,3.2396410713,90,left,left,2018_Feb_14_1555,59.8853500952,untitled.py,001,293,
32,0,32,0,0.15,1,90,6.83009125479,8.36644266266,90,right,right,2018_Feb_14_1555,59.8853500952,untitled.py,001,293,
33,0,33,0,0.15,0,90,4.46888193861,5.72667196486,90,left,right,2018_Feb_14_1555,59.8853500952,untitled.py,001,293,
34,0,34,0,0.15,0,90,3.0774388928,7.9850500552,90,left,right,2018_Feb_14_1555,59.8853500952,untitled.py,001,293,
35,0,35,0,0.15,0,90,4.02538087964,6.95463976543,90,left,right,2018_Feb_14_1555,59.8853500952,untitled.py,001,293,
36,0,36,0,0.15,1,90,5.01846184302,6.5645102933,90,left,left,2018_Feb_14_1555,59.8853500952,untitled.py,001,293,
37,0,37,0,0.15,1,90,3.51050007716,5.01757150702,90,left,left,2018_Feb_14_1555,59.8853500952,untitled.py,001,293,
38,0,38,0,0.15,1,90,10.3833255349,11.8479178222,90,left,left,2018_Feb_14_1555,59.8853500952,untitled.py,001,293,
39,0,39,0,0.15,0,90,2.89682962466,3.67262822483,90,right,left,2018_Feb_14_1555,59.8853500952,untitled.py,001,293,
40,0,40,0,0.15,0,90,5.06868945621,9.54374899622,90,left,right,2018_Feb_14_1555,59.8853500952,untitled.py,001,293,
41,0,41,0,0.15,0,90,4.67078693025,11.05867757,90,left,right,2018_Feb_14_1555,59.8853500952,untitled.py,001,293,
42,0,42,0,0.15,0,90,3.10971981008,4.55936634354,90,left,right,2018_Feb_14_1555,59.8853500952,untitled.py,001,293,
43,0,43,0,0.15,1,90,6.41621742491,8.40055677481,90,left,left,2018_Feb_14_1555,59.8853500952,untitled.py,001,293,
44,0,44,0,0.15,1,90,6.14828057773,8.19699375145,90,right,right,2018_Feb_14_1555,59.8853500952,untitled.py,001,293,
45,0,45,0,0.15,0,90,9.5585126048,12.5937673645,90,left,right,2018_Feb_14_1555,59.8853500952,untitled.py,001,293,
46,0,46,0,0.15,1,90,9.5377999153,11.0419357764,90,left,left,2018_Feb_14_1555,59.8853500952,untitled.py,001,293,
47,0,47,0,0.15,0,90,4.00674247649,4.74690665957,90,right,left,2018_Feb_14_1555,59.8853500952,untitled.py,001,293,
48,0,48,0,0.15,1,90,4.11794040818,5.78494836576,90,right,right,2018_Feb_14_1555,59.8853500952,untitled.py,001,293,
49,0,49,0,0.15,0,90,9.02472409233,15.2220963845,90,left,right,2018_Feb_14_1555,59.8853500952,untitled.py,001,293,
50,0,50,0,0.15,0,90,7.57771727908,10.5916900048,90,left,right,2018_Feb_14_1555,59.8853500952,untitled.py,001,293,
51,0,51,0,0.15,1,90,1.68188834097,3.89794066083,90,left,left,2018_Feb_14_1555,59.8853500952,untitled.py,001,293,
52,0,52,0,0.15,1,90,3.98869018257,5.7184684081,90,left,left,2018_Feb_14_1555,59.8853500952,untitled.py,001,293,
53,0,53,0,0.15,1,90,12.2873745132,14.121411521,90,left,left,2018_Feb_14_1555,59.8853500952,untitled.py,001,293,
54,0,54,0,0.15,1,90,4.27220750134,6.61790870037,90,left,left,2018_Feb_14_1555,59.8853500952,untitled.py,001,293,
55,0,55,0,0.15,0,90,4.951889975,6.10745024867,90,right,left,2018_Feb_14_1555,59.8853500952,untitled.py,001,293,
56,0,56,0,0.15,1,90,6.66309042089,11.0376153952,90,right,right,2018_Feb_14_1555,59.8853500952,untitled.py,001,293,
57,0,57,0,0.15,0,90,3.33341444284,6.37313345727,90,right,left,2018_Feb_14_1555,59.8853500952,untitled.py,001,293,
58,0,58,0,0.15,1,90,9.06996894814,10.917188637,90,right,right,2018_Feb_14_1555,59.8853500952,untitled.py,001,293,
59,0,59,0,0.15,0,90,3.2979965331,13.4998587808,90,right,left,2018_Feb_14_1555,59.8853500952,untitled.py,001,293,
60,0,60,0,0.15,0,90,1.52063572314,6.90161123872,90,right,left,2018_Feb_14_1555,59.8853500952,untitled.py,001,293,
61,0,61,0,0.15,0,90,1.73194721714,7.16124982387,90,right,left,2018_Feb_14_1555,59.8853500952,untitled.py,001,293,
62,0,62,0,0.15,0,90,8.2764977105,11.5162960654,90,right,left,2018_Feb_14_1555,59.8853500952,untitled.py,001,293,
63,0,63,0,0.15,0,90,3.56304222997,4.45594565757,90,right,left,2018_Feb_14_1555,59.8853500952,untitled.py,001,293,
64,0,64,0,0.15,1,90,1.31469697971,3.32671806123,90,right,right,2018_Feb_14_1555,59.8853500952,untitled.py,001,293,
65,0,65,0,0.15,1,90,8.60090542212,11.0281287143,90,right,right,2018_Feb_14_1555,59.8853500952,untitled.py,001,293,
66,0,66,0,0.15,1,90,5.7736620158,8.07599848602,90,right,right,2018_Feb_14_1555,59.8853500952,untitled.py,001,293,
67,0,67,0,0.15,0,90,4.96124535426,11.3615618749,90,right,left,2018_Feb_14_1555,59.8853500952,untitled.py,001,293,
68,0,68,0,0.15,1,90,6.3455414027,7.98785236664,90,left,left,2018_Feb_14_1555,59.8853500952,untitled.py,001,293,
69,0,69,0,0.15,1,90,3.70950441994,5.16284248419,90,left,left,2018_Feb_14_1555,59.8853500952,untitled.py,001,293,
70,0,70,0,0.15,1,90,4.41005323268,5.78376609273,90,left,left,2018_Feb_14_1555,59.8853500952,untitled.py,001,293,
71,0,71,0,0.15,0,90,10.9689287329,33.2600171249,90,right,left,2018_Feb_14_1555,59.8853500952,untitled.py,001,293,
72,0,72,0,0.15,0,90,4.44665648788,12.0028632125,90,right,left,2018_Feb_14_1555,59.8853500952,untitled.py,001,293,
73,0,73,0,0.15,0,90,3.84566250816,7.61648282129,90,right,left,2018_Feb_14_1555,59.8853500952,untitled.py,001,293,
74,0,74,0,0.15,0,90,1.50900268089,6.64179805014,90,right,left,2018_Feb_14_1555,59.8853500952,untitled.py,001,293,
75,0,75,0,0.15,1,90,10.095468279,12.0512696449,90,right,right,2018_Feb_14_1555,59.8853500952,untitled.py,001,293,
76,0,76,0,0.15,1,90,4.28042474668,6.14380235411,90,left,left,2018_Feb_14_1555,59.8853500952,untitled.py,001,293,
77,0,77,0,0.15,1,90,5.50271836296,7.08245824557,90,right,right,2018_Feb_14_1555,59.8853500952,untitled.py,001,293,
78,0,78,0,0.15,0,90,4.41612104326,14.8683930496,90,right,left,2018_Feb_14_1555,59.8853500952,untitled.py,001,293,
79,0,79,0,0.15,0,90,5.40627454035,9.04594047554,90,right,left,2018_Feb_14_1555,59.8853500952,untitled.py,001,293,
80,0,80,0,0.15,0,90,4.49980346672,9.16377640236,90,right,left,2018_Feb_14_1555,59.8853500952,untitled.py,001,293,
81,0,81,0,0.15,0,90,8.22743113991,16.1041604457,90,right,left,2018_Feb_14_1555,59.8853500952,untitled.py,001,293,
82,0,82,0,0.15,1,90,4.61174814124,6.55503422953,90,right,right,2018_Feb_14_1555,59.8853500952,untitled.py,001,293,
83,0,83,0,0.15,1,90,9.16303105559,10.8461729074,90,right,right,2018_Feb_14_1555,59.8853500952,untitled.py,001,293,
84,0,84,0,0.15,0,90,15.3996650409,28.5042920262,90,right,left,2018_Feb_14_1555,59.8853500952,untitled.py,001,293,
85,0,85,0,0.15,0,90,4.08257390279,5.24722220283,90,right,left,2018_Feb_14_1555,59.8853500952,untitled.py,001,293,
86,0,86,0,0.15,0,90,7.53920707759,24.6873191986,90,right,left,2018_Feb_14_1555,59.8853500952,untitled.py,001,293,
87,0,87,0,0.15,0,90,1.68347345758,5.13818488084,90,right,left,2018_Feb_14_1555,59.8853500952,untitled.py,001,293,
88,0,88,0,0.15,1,90,17.3031969145,24.9233464031,90,right,right,2018_Feb_14_1555,59.8853500952,untitled.py,001,293,
89,0,89,0,0.15,0,90,7.04193717334,11.1368891858,90,right,left,2018_Feb_14_1555,59.8853500952,untitled.py,001,293,
90,0,90,0,0.15,0,90,3.60511601344,6.80151806958,90,right,left,2018_Feb_14_1555,59.8853500952,untitled.py,001,293,
91,0,91,0,0.15,0,90,9.59566844348,11.5248873802,90,right,left,2018_Feb_14_1555,59.8853500952,untitled.py,001,293,
92,0,92,0,0.15,0,90,7.07266677823,32.7318189889,90,right,left,2018_Feb_14_1555,59.8853500952,untitled.py,001,293,
93,0,93,0,0.15,0,90,30.5606262805,42.8053721916,90,right,left,2018_Feb_14_1555,59.8853500952,untitled.py,001,293,
94,0,94,0,0.15,1,90,23.0913635679,48.681180709,90,right,right,2018_Feb_14_1555,59.8853500952,untitled.py,001,293,
95,0,95,0,0.15,1,90,8.18644213118,12.1736497236,90,right,right,2018_Feb_14_1555,59.8853500952,untitled.py,001,293,
96,0,96,0,0.15,0,90,9.55181370769,13.1088149473,90,right,left,2018_Feb_14_1555,59.8853500952,untitled.py,001,293,
97,0,97,0,0.15,0,90,5.91098058503,16.0535031687,90,left,right,2018_Feb_14_1555,59.8853500952,untitled.py,001,293,
98,0,98,0,0.15,0,90,3.46141171642,57.4132284969,90,right,left,2018_Feb_14_1555,59.8853500952,untitled.py,001,293,
99,0,99,0,0.15,1,90,35.7672422053,40.4996302603,90,right,right,2018_Feb_14_1555,59.8853500952,untitled.py,001,293,
