trials.thisRepN,trials.thisTrialN,trials.thisN,trials.thisIndex,trials.thisTrial,imagename,correct,Difference,touch_delay,lick_delay,orientation,correctstim,last_choice,date,frameRate,expName,session,participant,
0,0,0,0,None,0.15,1,90,9.04248472955,9.95604748651,90,right,right,2018_Feb_28_1623,59.8864523025,untitled.py,001,293,
1,0,1,0,None,0.15,1,90,18.2109606108,18.8371209186,90,right,right,2018_Feb_28_1623,59.8864523025,untitled.py,001,293,
2,0,2,0,None,0.15,1,90,10.5453961324,11.1701098885,90,left,left,2018_Feb_28_1623,59.8864523025,untitled.py,001,293,
3,0,3,0,None,0.15,0,90,9.76283103041,10.0126175256,90,right,left,2018_Feb_28_1623,59.8864523025,untitled.py,001,293,
4,0,4,0,None,0.15,1,90,4.88465461414,5.50977987424,90,left,left,2018_Feb_28_1623,59.8864523025,untitled.py,001,293,
5,0,5,0,None,0.15,1,90,8.06792203989,8.69386695791,90,left,left,2018_Feb_28_1623,59.8864523025,untitled.py,001,293,
6,0,6,0,None,0.15,0,90,6.27808143198,6.52492509503,90,right,left,2018_Feb_28_1623,59.8864523025,untitled.py,001,293,
7,0,7,0,None,0.15,0,90,4.74303801171,4.98844294436,90,left,right,2018_Feb_28_1623,59.8864523025,untitled.py,001,293,
8,0,8,0,None,0.15,0,90,2.41435098648,2.6639296338,90,left,right,2018_Feb_28_1623,59.8864523025,untitled.py,001,293,
9,0,9,0,None,0.15,1,90,6.90748433117,7.53332141414,90,left,left,2018_Feb_28_1623,59.8864523025,untitled.py,001,293,
10,0,10,0,None,0.15,1,90,8.62987111509,9.25578027405,90,left,left,2018_Feb_28_1623,59.8864523025,untitled.py,001,293,
11,0,11,0,None,0.15,1,90,9.79255436175,10.4186395202,90,left,left,2018_Feb_28_1623,59.8864523025,untitled.py,001,293,
12,0,12,0,None,0.15,1,90,6.34110368788,6.96655440796,90,left,left,2018_Feb_28_1623,59.8864523025,untitled.py,001,293,
13,0,13,0,None,0.15,0,90,6.1265040664,6.37627407908,90,right,left,2018_Feb_28_1623,59.8864523025,untitled.py,001,293,
14,0,14,0,None,0.15,0,90,5.22778984439,5.46133544855,90,right,left,2018_Feb_28_1623,59.8864523025,untitled.py,001,293,
15,0,15,0,None,0.15,1,90,2.55904702935,3.18473884184,90,right,right,2018_Feb_28_1623,59.8864523025,untitled.py,001,293,
16,0,16,0,None,0.15,0,90,6.8783627525,7.12551399693,90,right,left,2018_Feb_28_1623,59.8864523025,untitled.py,001,293,
17,0,17,0,None,0.15,1,90,1.74382526241,2.37038645986,90,left,left,2018_Feb_28_1623,59.8864523025,untitled.py,001,293,
18,0,18,0,None,0.15,1,90,7.47609430738,8.10168303456,90,right,right,2018_Feb_28_1623,59.8864523025,untitled.py,001,293,
19,0,19,0,None,0.15,0,90,8.20867931563,8.45845295954,90,right,left,2018_Feb_28_1623,59.8864523025,untitled.py,001,293,
20,0,20,0,None,0.15,1,90,1.81800564006,2.44391256385,90,right,right,2018_Feb_28_1623,59.8864523025,untitled.py,001,293,
21,0,21,0,None,0.15,0,90,5.78535623942,6.01887753885,90,right,left,2018_Feb_28_1623,59.8864523025,untitled.py,001,293,
22,0,22,0,None,0.15,0,90,1.51220616046,1.76245891582,90,right,left,2018_Feb_28_1623,59.8864523025,untitled.py,001,293,
23,0,23,0,None,0.15,0,90,1.57023867592,1.8200533865,90,right,left,2018_Feb_28_1623,59.8864523025,untitled.py,001,293,
24,0,24,0,None,0.15,0,90,9.5925124567,9.8422928052,90,right,left,2018_Feb_28_1623,59.8864523025,untitled.py,001,293,
25,0,25,0,None,0.15,0,90,3.67765484191,3.92779138125,90,right,left,2018_Feb_28_1623,59.8864523025,untitled.py,001,293,
26,0,26,0,None,0.15,1,90,2.64199891407,3.26824889798,90,right,right,2018_Feb_28_1623,59.8864523025,untitled.py,001,293,
27,0,27,0,None,0.15,0,90,7.89221032243,8.14198005572,90,right,left,2018_Feb_28_1623,59.8864523025,untitled.py,001,293,
28,0,28,0,None,0.15,1,90,1.4264340857,2.05156744737,90,right,right,2018_Feb_28_1623,59.8864523025,untitled.py,001,293,
29,0,29,0,None,0.15,0,90,5.62430281006,5.87408176251,90,right,left,2018_Feb_28_1623,59.8864523025,untitled.py,001,293,
30,0,30,0,None,0.15,1,90,4.06929986924,4.69523193594,90,right,right,2018_Feb_28_1623,59.8864523025,untitled.py,001,293,
31,0,31,0,None,0.15,1,90,10.3963799868,11.0229179962,90,right,right,2018_Feb_28_1623,59.8864523025,untitled.py,001,293,
32,0,32,0,None,0.15,1,90,5.37028365303,5.9948060438,90,right,right,2018_Feb_28_1623,59.8864523025,untitled.py,001,293,
33,0,33,0,None,0.15,0,90,7.57206376828,7.83227169979,90,right,left,2018_Feb_28_1623,59.8864523025,untitled.py,001,293,
34,0,34,0,None,0.15,1,90,3.89043970592,4.51787810959,90,right,right,2018_Feb_28_1623,59.8864523025,untitled.py,001,293,
35,0,35,0,None,0.15,0,90,5.79956139624,6.04968229122,90,right,left,2018_Feb_28_1623,59.8864523025,untitled.py,001,293,
36,0,36,0,None,0.15,1,90,3.15034201276,3.77650679089,90,left,left,2018_Feb_28_1623,59.8864523025,untitled.py,001,293,
37,0,37,0,None,0.15,0,90,10.7614906365,11.0117297024,90,left,right,2018_Feb_28_1623,59.8864523025,untitled.py,001,293,
38,0,38,0,None,0.15,0,90,1.26196653489,1.51222571544,90,right,left,2018_Feb_28_1623,59.8864523025,untitled.py,001,293,
39,0,39,0,None,0.15,1,90,1.22903637215,1.8547114227,90,left,left,2018_Feb_28_1623,59.8864523025,untitled.py,001,293,
40,0,40,0,None,0.15,1,90,5.88350809924,6.50842551235,90,left,left,2018_Feb_28_1623,59.8864523025,untitled.py,001,293,
41,0,41,0,None,0.15,1,90,6.72075668816,7.34670831077,90,left,left,2018_Feb_28_1623,59.8864523025,untitled.py,001,293,
42,0,42,0,None,0.15,1,90,8.34267204348,8.96885302477,90,right,right,2018_Feb_28_1623,59.8864523025,untitled.py,001,293,
43,0,43,0,None,0.15,1,90,8.00690897927,8.63273768034,90,right,right,2018_Feb_28_1623,59.8864523025,untitled.py,001,293,
44,0,44,0,None,0.15,1,90,6.4683575714,7.09352305997,90,right,right,2018_Feb_28_1623,59.8864523025,untitled.py,001,293,
45,0,45,0,None,0.15,0,90,5.44933196809,5.70522594359,90,right,left,2018_Feb_28_1623,59.8864523025,untitled.py,001,293,
46,0,46,0,None,0.15,1,90,2.49833233003,3.12570284773,90,right,right,2018_Feb_28_1623,59.8864523025,untitled.py,001,293,
47,0,47,0,None,0.15,1,90,7.6303890571,8.25674436241,90,right,right,2018_Feb_28_1623,59.8864523025,untitled.py,001,293,
48,0,48,0,None,0.15,1,90,6.32238287292,6.94876080658,90,right,right,2018_Feb_28_1623,59.8864523025,untitled.py,001,293,
49,0,49,0,None,0.15,1,90,7.53622988332,8.16193315014,90,left,left,2018_Feb_28_1623,59.8864523025,untitled.py,001,293,
50,0,50,0,None,0.15,1,90,12.4175678752,13.1863960363,90,right,right,2018_Feb_28_1623,59.8864523025,untitled.py,001,293,
51,0,51,0,None,0.15,0,90,12.1213894505,12.3716190187,90,right,left,2018_Feb_28_1623,59.8864523025,untitled.py,001,293,
52,0,52,0,None,0.15,1,90,1.29088026565,1.91667153221,90,left,left,2018_Feb_28_1623,59.8864523025,untitled.py,001,293,
53,0,53,0,None,0.15,1,90,13.9730029935,14.5989518221,90,left,left,2018_Feb_28_1623,59.8864523025,untitled.py,001,293,
54,0,54,0,None,0.15,0,90,9.86180366483,10.1115356842,90,left,right,2018_Feb_28_1623,59.8864523025,untitled.py,001,293,
55,0,55,0,None,0.15,1,90,1.4627895439,2.09064559825,90,right,right,2018_Feb_28_1623,59.8864523025,untitled.py,001,293,
56,0,56,0,None,0.15,1,90,8.15744235646,8.78253157903,90,right,right,2018_Feb_28_1623,59.8864523025,untitled.py,001,293,
57,0,57,0,None,0.15,1,90,6.26004897337,6.8866364304,90,left,left,2018_Feb_28_1623,59.8864523025,untitled.py,001,293,
58,0,58,0,None,0.15,0,90,1.2738177618,1.52551902551,90,left,right,2018_Feb_28_1623,59.8864523025,untitled.py,001,293,
59,0,59,0,None,0.15,0,90,1.37713061273,1.62338509504,90,right,left,2018_Feb_28_1623,59.8864523025,untitled.py,001,293,
60,0,60,0,None,0.15,1,90,1.59263844974,2.21993800905,90,left,left,2018_Feb_28_1623,59.8864523025,untitled.py,001,293,
61,0,61,0,None,0.15,0,90,2.13585804962,2.38605102059,90,left,right,2018_Feb_28_1623,59.8864523025,untitled.py,001,293,
