trials.thisRepN,trials.thisTrialN,trials.thisN,trials.thisIndex,trials.thisTrial,imagename,correct,Difference,touch_delay,lick_delay,orientation,correctstim,last_choice,date,frameRate,expName,session,participant,
0,0,0,0,None,0.15,0,0,0,0,0,,left,2018_Mrz_01_1601,59.8861516965,untitled.py,001,293,
1,0,1,0,None,0.15,0,0,0,0,0,,left,2018_Mrz_01_1601,59.8861516965,untitled.py,001,293,
2,0,2,0,None,0.15,1,90,2.94517906569,3.85572020989,90,right,right,2018_Mrz_01_1601,59.8861516965,untitled.py,001,293,
3,0,3,0,None,0.15,1,90,5.90449009556,6.53100938816,90,right,right,2018_Mrz_01_1601,59.8861516965,untitled.py,001,293,
4,0,4,0,None,0.15,1,90,9.20347697847,9.82954872772,90,right,right,2018_Mrz_01_1601,59.8861516965,untitled.py,001,293,
5,0,5,0,None,0.15,0,90,6.33652852476,6.59181683697,90,left,right,2018_Mrz_01_1601,59.8861516965,untitled.py,001,293,
6,0,6,0,None,0.15,1,90,1.89374096412,2.52007671352,90,left,left,2018_Mrz_01_1601,59.8861516965,untitled.py,001,293,
7,0,7,0,None,0.15,1,90,5.35630785488,5.98233797867,90,left,left,2018_Mrz_01_1601,59.8861516965,untitled.py,001,293,
8,0,8,0,None,0.15,1,90,5.99290272966,6.61928010453,90,left,left,2018_Mrz_01_1601,59.8861516965,untitled.py,001,293,
9,0,9,0,None,0.15,1,90,1.46489791293,2.09071208816,90,left,left,2018_Mrz_01_1601,59.8861516965,untitled.py,001,293,
10,0,10,0,None,0.15,1,90,8.57562762871,9.2012926219,90,left,left,2018_Mrz_01_1601,59.8861516965,untitled.py,001,293,
11,0,11,0,None,0.15,1,90,1.26622210443,1.89266848192,90,right,right,2018_Mrz_01_1601,59.8861516965,untitled.py,001,293,
12,0,12,0,None,0.15,1,90,9.45569897816,10.0826912355,90,left,left,2018_Mrz_01_1601,59.8861516965,untitled.py,001,293,
13,0,13,0,None,0.15,1,90,8.82310964074,9.44972363766,90,right,right,2018_Mrz_01_1601,59.8861516965,untitled.py,001,293,
14,0,14,0,None,0.15,1,90,4.74953017756,5.37551951408,90,left,left,2018_Mrz_01_1601,59.8861516965,untitled.py,001,293,
15,0,15,0,None,0.15,0,90,2.35355499107,2.59952452034,90,left,right,2018_Mrz_01_1601,59.8861516965,untitled.py,001,293,
16,0,16,0,None,0.15,0,90,6.26366647147,6.52183615509,90,right,left,2018_Mrz_01_1601,59.8861516965,untitled.py,001,293,
17,0,17,0,None,0.15,0,90,1.32939968631,1.57968121674,90,right,left,2018_Mrz_01_1601,59.8861516965,untitled.py,001,293,
18,0,18,0,None,0.15,1,90,1.8799129501,2.50560588017,90,right,right,2018_Mrz_01_1601,59.8861516965,untitled.py,001,293,
19,0,19,0,None,0.15,1,90,5.56954473257,6.19564302173,90,right,right,2018_Mrz_01_1601,59.8861516965,untitled.py,001,293,
20,0,20,0,None,0.15,0,90,5.86992480885,6.11529957037,90,right,left,2018_Mrz_01_1601,59.8861516965,untitled.py,001,293,
21,0,21,0,None,0.15,0,90,1.62674027029,1.87649799138,90,left,right,2018_Mrz_01_1601,59.8861516965,untitled.py,001,293,
22,0,22,0,None,0.15,1,90,1.65937654115,2.28520664014,90,right,right,2018_Mrz_01_1601,59.8861516965,untitled.py,001,293,
23,0,23,0,None,0.15,0,90,7.97602656204,8.22582339402,90,right,left,2018_Mrz_01_1601,59.8861516965,untitled.py,001,293,
24,0,24,0,None,0.15,1,90,2.09356300812,2.71966772247,90,left,left,2018_Mrz_01_1601,59.8861516965,untitled.py,001,293,
25,0,25,0,None,0.15,1,90,5.89242292009,6.51889248472,90,left,left,2018_Mrz_01_1601,59.8861516965,untitled.py,001,293,
26,0,26,0,None,0.15,1,90,1.76847560238,2.39469401818,90,left,left,2018_Mrz_01_1601,59.8861516965,untitled.py,001,293,
27,0,27,0,None,0.15,0,90,9.24477440584,9.49378007557,90,right,left,2018_Mrz_01_1601,59.8861516965,untitled.py,001,293,
28,0,28,0,None,0.15,1,90,2.06114995014,2.68728930596,90,left,left,2018_Mrz_01_1601,59.8861516965,untitled.py,001,293,
29,0,29,0,None,0.15,0,90,6.24269704614,6.47576856799,90,left,right,2018_Mrz_01_1601,59.8861516965,untitled.py,001,293,
30,0,30,0,None,0.15,0,90,1.37805531174,1.61152325291,90,left,right,2018_Mrz_01_1601,59.8861516965,untitled.py,001,293,
31,0,31,0,None,0.15,0,90,6.64172597323,6.87485979311,90,right,left,2018_Mrz_01_1601,59.8861516965,untitled.py,001,293,
32,0,32,0,None,0.15,1,90,3.76531318948,4.39034793526,90,right,right,2018_Mrz_01_1601,59.8861516965,untitled.py,001,293,
33,0,33,0,None,0.15,0,90,4.93757809978,5.18744533136,90,right,left,2018_Mrz_01_1601,59.8861516965,untitled.py,001,293,
34,0,34,0,None,0.15,1,90,4.22717272677,4.85380488262,90,right,right,2018_Mrz_01_1601,59.8861516965,untitled.py,001,293,
35,0,35,0,None,0.15,0,90,6.00695898477,6.25482931547,90,right,left,2018_Mrz_01_1601,59.8861516965,untitled.py,001,293,
36,0,36,0,None,0.15,1,90,2.16539252922,2.79181488138,90,right,right,2018_Mrz_01_1601,59.8861516965,untitled.py,001,293,
37,0,37,0,None,0.15,1,90,4.85311792418,5.47956793383,90,left,left,2018_Mrz_01_1601,59.8861516965,untitled.py,001,293,
38,0,38,0,None,0.15,1,90,8.07614906412,8.70153078157,90,left,left,2018_Mrz_01_1601,59.8861516965,untitled.py,001,293,
39,0,39,0,None,0.15,1,90,6.50905156974,7.13410419505,90,left,left,2018_Mrz_01_1601,59.8861516965,untitled.py,001,293,
40,0,40,0,None,0.15,1,90,1.26039594412,1.88637047447,90,left,left,2018_Mrz_01_1601,59.8861516965,untitled.py,001,293,
41,0,41,0,None,0.15,1,90,8.97678056918,9.60355324578,90,left,left,2018_Mrz_01_1601,59.8861516965,untitled.py,001,293,
42,0,42,0,None,0.15,0,90,5.94107686821,6.19085554127,90,left,right,2018_Mrz_01_1601,59.8861516965,untitled.py,001,293,
43,0,43,0,None,0.15,0,90,1.74364423472,1.97677414306,90,right,left,2018_Mrz_01_1601,59.8861516965,untitled.py,001,293,
44,0,44,0,None,0.15,1,90,1.74358221516,2.36947628856,90,right,right,2018_Mrz_01_1601,59.8861516965,untitled.py,001,293,
45,0,45,0,None,0.15,1,90,6.28860846814,6.91367059201,90,right,right,2018_Mrz_01_1601,59.8861516965,untitled.py,001,293,
46,0,46,0,None,0.15,1,90,7.32314889226,7.94963968918,90,right,right,2018_Mrz_01_1601,59.8861516965,untitled.py,001,293,
47,0,47,0,None,0.15,1,90,6.74058015738,7.36667174194,90,right,right,2018_Mrz_01_1601,59.8861516965,untitled.py,001,293,
48,0,48,0,None,0.15,1,90,6.33361279126,6.95992060378,90,left,left,2018_Mrz_01_1601,59.8861516965,untitled.py,001,293,
49,0,49,0,None,0.15,1,90,5.79320053197,6.4188979324,90,right,right,2018_Mrz_01_1601,59.8861516965,untitled.py,001,293,
50,0,50,0,None,0.15,0,90,40.3380790018,40.5967710977,90,left,right,2018_Mrz_01_1601,59.8861516965,untitled.py,001,293,
51,0,51,0,None,0.15,0,90,1.98885919899,2.2389976941,90,left,right,2018_Mrz_01_1601,59.8861516965,untitled.py,001,293,
52,0,52,0,None,0.15,1,90,10.2987466278,10.9247264666,90,left,left,2018_Mrz_01_1601,59.8861516965,untitled.py,001,293,
53,0,53,0,None,0.15,0,90,3.58049249277,3.84171200544,90,left,right,2018_Mrz_01_1601,59.8861516965,untitled.py,001,293,
54,0,54,0,None,0.15,1,90,7.96381690912,8.58973053843,90,left,left,2018_Mrz_01_1601,59.8861516965,untitled.py,001,293,
55,0,55,0,None,0.15,1,90,9.84486659616,10.4705944471,90,left,left,2018_Mrz_01_1601,59.8861516965,untitled.py,001,293,
56,0,56,0,None,0.15,1,90,9.51128146239,10.1367182145,90,left,left,2018_Mrz_01_1601,59.8861516965,untitled.py,001,293,
57,0,57,0,None,0.15,0,90,6.48562680464,6.74002170656,90,left,right,2018_Mrz_01_1601,59.8861516965,untitled.py,001,293,
58,0,58,0,None,0.15,1,90,1.23915441707,1.86437773518,90,right,right,2018_Mrz_01_1601,59.8861516965,untitled.py,001,293,
59,0,59,0,None,0.15,1,90,16.3989906544,17.0250844732,90,right,right,2018_Mrz_01_1601,59.8861516965,untitled.py,001,293,
60,0,60,0,None,0.15,0,90,16.6755587654,16.9224859588,90,left,right,2018_Mrz_01_1601,59.8861516965,untitled.py,001,293,
61,0,61,0,None,0.15,0,90,13.8556456193,14.110799836,90,left,right,2018_Mrz_01_1601,59.8861516965,untitled.py,001,293,
62,0,62,0,None,0.15,1,90,5.60990796331,6.23548663314,90,left,left,2018_Mrz_01_1601,59.8861516965,untitled.py,001,293,
63,0,63,0,None,0.15,1,90,71.4829415474,72.1087442683,90,right,right,2018_Mrz_01_1601,59.8861516965,untitled.py,001,293,
64,0,64,0,None,0.15,0,90,30.0402160054,30.2990237586,90,right,left,2018_Mrz_01_1601,59.8861516965,untitled.py,001,293,
65,0,65,0,None,0.15,0,90,1.50120001286,1.74651163723,90,left,right,2018_Mrz_01_1601,59.8861516965,untitled.py,001,293,
66,0,66,0,None,0.15,1,90,12.5000995938,13.1261646384,90,left,left,2018_Mrz_01_1601,59.8861516965,untitled.py,001,293,
67,0,67,0,None,0.15,1,90,8.25829148665,8.88348100055,90,left,left,2018_Mrz_01_1601,59.8861516965,untitled.py,001,293,
68,0,68,0,None,0.15,1,90,1.46319490392,2.08945243061,90,left,left,2018_Mrz_01_1601,59.8861516965,untitled.py,001,293,
69,0,69,0,None,0.15,0,90,15.7527604764,16.0029783109,90,left,right,2018_Mrz_01_1601,59.8861516965,untitled.py,001,293,
70,0,70,0,None,0.15,1,90,10.062191424,10.6890906524,90,left,left,2018_Mrz_01_1601,59.8861516965,untitled.py,001,293,
71,0,71,0,None,0.15,0,90,1.53851536941,1.79584165011,90,left,right,2018_Mrz_01_1601,59.8861516965,untitled.py,001,293,
72,0,72,0,None,0.15,0,90,9.54475722555,9.79499293957,90,right,left,2018_Mrz_01_1601,59.8861516965,untitled.py,001,293,
73,0,73,0,None,0.15,0,90,45.0620768834,45.3122737659,90,left,right,2018_Mrz_01_1601,59.8861516965,untitled.py,001,293,
74,0,74,0,None,0.15,1,90,3.13589129411,3.76142722089,90,right,right,2018_Mrz_01_1601,59.8861516965,untitled.py,001,293,
75,0,75,0,None,0.15,1,90,20.4296481814,21.0557436766,90,right,right,2018_Mrz_01_1601,59.8861516965,untitled.py,001,293,
76,0,76,0,None,0.15,1,90,16.2738632988,16.8992547933,90,right,right,2018_Mrz_01_1601,59.8861516965,untitled.py,001,293,
77,0,77,0,None,0.15,1,90,3.99244848173,4.61838641483,90,right,right,2018_Mrz_01_1601,59.8861516965,untitled.py,001,293,
78,0,78,0,None,0.15,1,90,2.98911984637,3.6154919127,90,left,left,2018_Mrz_01_1601,59.8861516965,untitled.py,001,293,
